[
    {
        "animation_sequence": "[{\"stimulus\":{\"id\":\"red-dot\",\"x\":424,\"y\":424,\"width\":112,\"height\":112},\"time\":1008},{\"stimulus\":{\"id\":\"green-dot\",\"x\":424,\"y\":424,\"width\":112,\"height\":112},\"time\":2001}]",
        "responses": "[]",
        "trial_type": "animation",
        "trial_index": 0,
        "time_elapsed": 3006,
        "internal_node_id": "0.0-0.0"
    },
    {
        "rt": -1,
        "key_press": -1,
        "correct": false,
        "id": "disk-condition-11-1",
        "choices": [],
        "correct_choice": [
            "R"
        ],
        "trial_duration": 8000,
        "response_ends_trial": true,
        "central_intensity": 0.9,
        "surround_intensity": 0.45,
        "central_radius": 2,
        "surround_radius": 4,
        "ratio": 2,
        "speed": 1124,
        "direction": 1,
        "field_spacing": 96,
        "background_color": "gray",
        "frame_rate": 16.56728778467909,
        "frame_rate_array": "[0,31,12,12,12,12,12,12,12,12,12,12,15,15,18,16,16,17,17,17,16,17,16,17,18,15,17,16,17,17,16,17,17,16,17,16,17,18,16,16,17,17,17,16,17,17,16,18,16,17,16,16,19,14,17,17,16,17,17,17,17,16,17,16,17,17,17,16,17,17,17,16,16,17,16,19,15,17,17,16,19,14,17,17,16,17,17,16,17,17,17,16,17,17,16,17,17,16,18,15,17,16,17,19,15,16,17,17,18,15,17,17,16,17,17,17,16,16,18,15,17,18,15,18,16,17,18,15,17,16,17,18,16,16,17,17,16,17,17,17,16,16,17,16,18,16,17,19,14,18,15,17,17,17,18,15,17,16,17,18,15,16,18,16,16,18,16,17,16,17,18,15,18,16,16,17,17,18,15,17,17,16,18,16,17,16,17,18,14,17,18,16,16,17,17,17,16,19,16,15,18,16,16,17,17,17,16,16,17,16,19,15,16,17,21,19,14,17,17,16,17,17,17,17,16,17,16,17,18,16,16,16,18,17,16,16,18,15,19,15,16,17,17,19,14,17,17,16,17,17,16,17,17,17,16,17,17,15,18,17,16,18,16,16,16,17,19,15,16,17,17,16,17,17,17,16,17,17,16,17,18,16,15,17,18,15,17,17,17,17,16,17,16,17,18,15,17,17,17,16,17,17,16,17,16,17,16,18,16,16,17,17,18,15,17,17,16,18,16,16,17,17,18,15,17,17,16,17,17,16,17,17,16,17,17,17,16,17,17,16,18,15,17,16,18,15,17,17,17,16,17,17,16,18,16,16,19,15,16,17,17,16,17,17,16,17,17,16,18,16,16,20,14,18,15,17,16,17,19,15,16,17,17,16,17,16,18,15,18,17,15,19,15,16,17,17,18,15,17,17,16,19,15,16,17,17,16,17,17,17,16,17,17,16,17,16,17,16,17,18,15,17,17,17,17,16,17,16,17,18,15,17,16,17,19,15,16,17,17,16,17,17,17,16,17,16,17,17,16,17,16,17,18,15,17,17,16,19,15,17,16,17,18,15,17,17,17,16,17,16,17,16,17,17,16,18,16,16,17,17,18,15,17]",
        "number_of_frames": 483,
        "canvas_width": 2560,
        "canvas_height": 1440,
        "blanking": false,
        "staircase": false,
        "trial_type": "disks",
        "trial_index": 1,
        "time_elapsed": 11142,
        "internal_node_id": "0.0-1.0-0.0"
    },
    {
        "animation_sequence": "[{\"stimulus\":{\"id\":\"red-dot\",\"x\":424,\"y\":424,\"width\":112,\"height\":112},\"time\":1002},{\"stimulus\":{\"id\":\"green-dot\",\"x\":424,\"y\":424,\"width\":112,\"height\":112},\"time\":2001}]",
        "responses": "[]",
        "trial_type": "animation",
        "trial_index": 2,
        "time_elapsed": 14145,
        "internal_node_id": "0.0-2.0"
    },
    {
        "rt": -1,
        "key_press": -1,
        "correct": false,
        "id": "disk-condition-11-1",
        "choices": [],
        "correct_choice": [
            "R"
        ],
        "trial_duration": 8000,
        "response_ends_trial": true,
        "central_intensity": 0.9,
        "surround_intensity": 0.45,
        "central_radius": 2,
        "surround_radius": 4,
        "ratio": 2,
        "speed": 1124,
        "direction": 1,
        "field_spacing": 96,
        "background_color": "gray",
        "frame_rate": 16.50826446280992,
        "frame_rate_array": "[0,11,22,0,6,12,12,12,12,12,12,12,16,17,16,17,17,17,16,17,17,17,16,17,17,16,18,16,15,17,17,19,14,17,17,16,17,17,16,18,16,17,16,17,17,16,16,17,18,17,15,17,16,17,19,15,16,18,17,17,15,17,17,16,17,17,17,16,16,18,15,17,17,16,17,17,16,18,16,17,16,17,17,16,17,17,17,17,16,17,16,17,18,16,15,17,17,18,15,18,15,17,19,15,17,17,16,16,18,15,18,16,16,17,17,18,15,18,16,16,18,16,17,16,17,18,15,17,17,16,18,16,16,17,17,16,17,17,16,17,17,17,15,18,16,16,17,17,18,15,17,17,17,18,15,17,17,16,18,16,16,17,17,18,14,17,18,15,17,18,16,17,16,17,16,17,18,15,17,17,17,17,16,17,16,17,18,15,17,16,17,19,14,17,17,17,16,17,17,16,17,18,15,17,19,14,17,17,16,17,17,17,16,16,18,16,16,17,16,19,15,17,16,17,18,16,16,17,17,16,17,17,16,17,18,15,17,18,15,17,17,16,17,17,17,16,16,18,15,17,17,17,18,15,17,16,17,18,16,16,17,17,16,17,17,17,15,18,17,15,18,16,17,16,17,18,15,17,17,17,17,16,17,16,17,18,15,17,17,16,16,17,17,17,16,17,17,16,18,16,17,16,16,18,16,16,17,17,18,15,17,17,16,18,16,17,16,17,18,15,17,16,18,15,18,16,17,16,17,17,16,18,16,16,17,17,17,16,17,16,17,18,16,16,16,17,19,14,17,17,16,17,17,17,17,16,17,16,17,17,17,16,17,17,17,16,16,17,16,19,15,16,17,17,19,14,17,17,16,17,17,17,16,17,17,16,17,17,17,16,16,17,18,15,17,16,17,19,15,16,17,17,16,17,17,17,16,17,17,16,17,16,17,16,17,18,15,17,17,17,18,15,17,16,17,19,15,16,17,17,16,17,16,17,16,17,18,15,18,16,16,17,17,18,15,17,17,16,18,16,17,20,13,18,15,17,16,17,17,17,16,17,16,17,17,16,17,17,16,17,17,17,17,16,17,17,16,17,20,13,17,20,13,17]",
        "number_of_frames": 484,
        "canvas_width": 2560,
        "canvas_height": 1440,
        "blanking": false,
        "staircase": false,
        "trial_type": "disks",
        "trial_index": 3,
        "time_elapsed": 22226,
        "internal_node_id": "0.0-3.0-0.0"
    },
    {
        "animation_sequence": "[{\"stimulus\":{\"id\":\"red-dot\",\"x\":424,\"y\":424,\"width\":112,\"height\":112},\"time\":1002},{\"stimulus\":{\"id\":\"green-dot\",\"x\":424,\"y\":424,\"width\":112,\"height\":112},\"time\":2002}]",
        "responses": "[]",
        "trial_type": "animation",
        "trial_index": 4,
        "time_elapsed": 25229,
        "internal_node_id": "0.0-4.0"
    },
    {
        "rt": -1,
        "key_press": -1,
        "correct": false,
        "id": "disk-condition-11-1",
        "choices": [],
        "correct_choice": [
            "R"
        ],
        "trial_duration": 8000,
        "response_ends_trial": true,
        "central_intensity": 0.9,
        "surround_intensity": 0.45,
        "central_radius": 2,
        "surround_radius": 4,
        "ratio": 2,
        "speed": 1124,
        "direction": 1,
        "field_spacing": 96,
        "background_color": "gray",
        "frame_rate": 16.559006211180126,
        "frame_rate_array": "[0,11,1,31,1,3,18,16,17,17,16,18,15,16,17,18,16,16,17,17,18,15,17,16,17,18,16,16,17,17,16,17,17,16,17,16,17,16,18,16,17,16,17,17,16,17,17,17,17,16,17,16,17,18,16,15,17,17,16,17,17,17,16,17,17,16,17,17,16,17,17,17,16,17,17,15,19,15,18,15,17,19,14,17,17,17,16,17,17,16,17,17,17,16,17,17,16,17,16,18,15,17,17,16,19,15,17,16,17,18,15,17,17,16,17,17,17,16,17,19,14,17,18,15,17,17,16,18,16,17,16,17,18,14,17,18,15,17,17,16,18,16,17,16,17,18,15,17,17,17,17,16,17,16,17,18,16,16,17,17,17,15,17,17,16,19,14,17,17,17,16,18,16,17,16,17,17,16,17,17,16,17,17,16,17,19,14,17,20,13,16,18,16,18,15,17,17,16,19,15,16,17,17,16,17,17,17,16,17,17,16,17,17,16,16,17,18,15,18,16,17,18,15,17,16,17,18,15,17,17,17,18,15,16,19,15,16,17,17,17,15,18,17,15,19,15,17,16,17,19,14,17,17,17,18,15,17,19,14,19,14,17,17,16,20,14,16,18,16,16,17,17,18,15,17,16,17,18,15,17,16,17,17,17,16,18,16,17,16,17,17,15,19,16,15,17,17,19,14,17,17,16,17,17,17,16,17,17,16,17,17,16,17,17,17,17,15,17,16,17,19,15,16,17,17,16,17,17,17,16,19,15,16,18,17,15,17,17,17,16,17,17,15,19,16,16,20,13,19,14,17,17,16,17,17,17,16,17,17,16,17,17,16,16,18,17,17,16,16,17,17,18,15,16,17,18,15,17,17,17,16,19,14,17,18,16,16,17,17,17,16,17,17,17,17,16,17,15,17,19,15,16,17,17,16,17,17,16,17,17,17,16,17,17,16,17,17,17,15,18,16,16,19,15,17,16,17,19,14,17,17,17,16,17,17,16,17,17,17,16,17,16,16,17,17,18,15,17,17,16,18,16,16,17,17,18,15,17,17,16,17,16,17,17,16,17,16,17,18,16,16,17,17,17,16,17,17,16,18,16,16,16,18]",
        "number_of_frames": 483,
        "canvas_width": 2560,
        "canvas_height": 1440,
        "blanking": false,
        "staircase": false,
        "trial_type": "disks",
        "trial_index": 5,
        "time_elapsed": 33292,
        "internal_node_id": "0.0-5.0-0.0"
    },
    {
        "animation_sequence": "[{\"stimulus\":{\"id\":\"red-dot\",\"x\":424,\"y\":424,\"width\":112,\"height\":112},\"time\":1002},{\"stimulus\":{\"id\":\"green-dot\",\"x\":424,\"y\":424,\"width\":112,\"height\":112},\"time\":2002}]",
        "responses": "[]",
        "trial_type": "animation",
        "trial_index": 6,
        "time_elapsed": 36296,
        "internal_node_id": "0.0-6.0"
    },
    {
        "rt": -1,
        "key_press": -1,
        "correct": false,
        "id": "disk-condition-11-1",
        "choices": [],
        "correct_choice": [
            "R"
        ],
        "trial_duration": 8000,
        "response_ends_trial": true,
        "central_intensity": 0.9,
        "surround_intensity": 0.45,
        "central_radius": 2,
        "surround_radius": 4,
        "ratio": 2,
        "speed": 1124,
        "direction": 1,
        "field_spacing": 96,
        "background_color": "gray",
        "frame_rate": 16.512396694214875,
        "frame_rate_array": "[1,7,11,11,13,12,12,11,14,17,17,39,9,12,12,12,16,16,17,16,19,14,17,17,16,17,17,16,17,17,17,16,17,17,16,17,17,17,17,16,17,15,18,18,15,16,17,17,16,17,17,17,16,17,17,16,17,17,17,16,17,17,15,18,16,18,17,15,17,16,19,17,15,16,17,17,16,17,17,16,17,17,17,16,17,16,16,17,17,18,15,17,17,16,18,16,17,16,17,18,15,17,17,17,16,16,18,16,17,17,17,15,18,16,16,17,17,17,16,17,17,16,18,16,16,17,17,18,15,16,18,15,17,17,17,17,16,17,16,17,17,17,16,17,17,17,17,16,17,16,19,15,16,17,16,17,17,16,18,15,17,17,17,17,16,17,16,17,18,15,17,17,17,17,15,17,17,16,19,15,16,17,17,16,17,17,17,16,17,17,16,18,16,17,16,17,17,15,17,18,16,18,15,17,17,16,19,14,17,17,17,16,17,17,16,17,17,17,15,18,17,16,17,16,18,15,17,17,16,18,17,15,17,17,18,15,17,17,16,17,17,17,16,16,17,16,17,23,27,1,2,14,22,12,16,17,16,17,18,16,16,17,17,17,16,17,17,16,18,15,17,18,16,15,17,17,17,16,17,17,16,17,17,17,16,17,17,16,17,16,17,18,15,17,17,16,19,15,16,17,17,16,17,17,17,16,17,16,17,18,15,17,17,16,18,16,16,17,17,16,17,18,15,17,16,17,17,17,16,17,17,16,17,17,17,16,17,17,16,17,17,16,18,15,17,16,17,19,14,17,17,17,16,17,17,16,17,17,17,16,17,17,16,16,18,17,15,17,17,16,19,15,17,16,17,19,14,17,17,16,17,17,17,16,17,17,17,17,16,16,17,16,17,18,16,16,17,17,18,15,17,17,16,18,16,16,17,17,16,17,17,16,16,17,18,15,18,16,17,16,17,17,16,17,17,17,17,16,17,16,17,18,15,16,17,18,15,17,17,17,16,17,17,16,18,16,16,17,17,17,16,17,17,17,17,15,17,16,17,19,14,17,17,17,16,17,17,16,17,19,14,17,17,20,13,17,16,17,17,16,17,17,18,15]",
        "number_of_frames": 484,
        "canvas_width": 2560,
        "canvas_height": 1440,
        "blanking": false,
        "staircase": false,
        "trial_type": "disks",
        "trial_index": 7,
        "time_elapsed": 44375,
        "internal_node_id": "0.0-7.0-0.0"
    },
    {
        "animation_sequence": "[{\"stimulus\":{\"id\":\"red-dot\",\"x\":424,\"y\":424,\"width\":112,\"height\":112},\"time\":1003},{\"stimulus\":{\"id\":\"green-dot\",\"x\":424,\"y\":424,\"width\":112,\"height\":112},\"time\":2001}]",
        "responses": "[]",
        "trial_type": "animation",
        "trial_index": 8,
        "time_elapsed": 47379,
        "internal_node_id": "0.0-8.0"
    },
    {
        "rt": -1,
        "key_press": -1,
        "correct": false,
        "id": "disk-condition-11-1",
        "choices": [],
        "correct_choice": [
            "R"
        ],
        "trial_duration": 8000,
        "response_ends_trial": true,
        "central_intensity": 0.9,
        "surround_intensity": 0.45,
        "central_radius": 2,
        "surround_radius": 4,
        "ratio": 2,
        "speed": 1124,
        "direction": 1,
        "field_spacing": 96,
        "background_color": "gray",
        "frame_rate": 16.570539419087137,
        "frame_rate_array": "[1,10,23,1,7,12,17,16,17,17,17,16,17,17,16,17,17,17,16,17,17,16,16,17,18,17,15,17,16,17,19,14,17,17,17,16,17,17,16,17,17,17,16,17,17,15,17,17,18,15,17,17,16,19,15,17,16,17,18,15,17,17,17,16,17,17,16,17,17,16,17,17,16,16,17,17,18,15,17,17,16,18,15,18,16,16,19,15,17,16,17,18,15,17,17,16,17,17,17,16,17,16,17,16,18,16,16,17,17,18,15,17,17,16,18,16,16,17,17,18,15,17,16,17,16,17,17,17,16,17,16,17,18,16,16,17,17,17,16,17,16,17,18,16,16,17,17,16,17,16,18,51,8,12,12,12,12,12,13,17,17,16,17,17,17,17,16,17,16,16,19,14,17,18,16,16,17,17,17,16,17,17,16,18,16,16,17,17,17,15,17,18,15,18,16,17,17,17,17,16,16,18,15,18,16,17,18,15,18,15,17,16,18,18,14,17,17,17,18,15,16,17,17,16,17,17,17,16,17,16,17,18,16,16,17,16,18,16,16,17,17,18,15,17,17,16,18,16,16,17,17,18,15,17,17,15,17,17,17,17,16,17,16,17,17,17,16,17,17,17,16,17,16,17,18,15,17,16,17,19,14,17,17,16,17,17,16,18,16,17,16,17,17,16,17,17,17,17,15,18,15,18,18,15,16,17,17,16,17,17,17,16,17,17,16,17,17,16,17,17,17,15,18,16,16,19,15,17,16,17,19,14,17,17,17,16,17,17,16,17,17,17,16,17,16,17,16,17,18,15,17,17,16,19,15,17,16,17,18,15,17,17,16,17,17,17,16,17,16,16,17,18,17,16,16,17,18,15,17,17,16,18,16,16,17,17,18,15,16,17,17,19,14,17,19,15,18,15,16,17,17,16,17,17,17,16,17,16,17,18,15,17,17,16,17,17,16,17,17,16,17,17,17,16,17,16,17,18,15,17,18,15,17,17,16,17,17,16,17,17,16,17,17,17,16,17,17,18,15,16,20,13,17,17,16,18,16,16,17,17,17,16,17,17,16,18,16,17,16,17,18,15,16,17,16,17,17,17,17,16,17,16]",
        "number_of_frames": 482,
        "canvas_width": 2560,
        "canvas_height": 1440,
        "blanking": false,
        "staircase": false,
        "trial_type": "disks",
        "trial_index": 9,
        "time_elapsed": 55442,
        "internal_node_id": "0.0-9.0-0.0"
    },
    {
        "animation_sequence": "[{\"stimulus\":{\"id\":\"red-dot\",\"x\":424,\"y\":424,\"width\":112,\"height\":112},\"time\":1002},{\"stimulus\":{\"id\":\"green-dot\",\"x\":424,\"y\":424,\"width\":112,\"height\":112},\"time\":2003}]",
        "responses": "[]",
        "trial_type": "animation",
        "trial_index": 10,
        "time_elapsed": 58445,
        "internal_node_id": "0.0-10.0"
    },
    {
        "rt": -1,
        "key_press": -1,
        "correct": false,
        "id": "disk-condition-11-1",
        "choices": [],
        "correct_choice": [
            "R"
        ],
        "trial_duration": 8000,
        "response_ends_trial": true,
        "central_intensity": 0.9,
        "surround_intensity": 0.45,
        "central_radius": 2,
        "surround_radius": 4,
        "ratio": 2,
        "speed": 1124,
        "direction": 1,
        "field_spacing": 96,
        "background_color": "gray",
        "frame_rate": 16.540372670807454,
        "frame_rate_array": "[1,10,3,25,0,11,12,12,15,17,16,17,17,16,17,17,17,15,17,17,18,15,18,16,16,19,15,16,17,17,18,15,17,17,16,19,15,16,19,14,18,15,17,18,15,17,17,17,18,15,17,16,17,18,16,16,17,17,16,17,16,17,17,18,15,17,17,15,18,16,17,17,17,16,17,17,17,16,17,16,16,19,15,16,17,17,16,17,17,17,16,17,17,16,17,17,17,16,17,17,16,16,17,16,19,15,17,16,17,19,14,17,17,17,16,17,17,16,17,17,17,16,17,17,15,18,16,18,15,17,17,16,19,15,40,5,11,12,15,17,17,17,16,17,17,16,17,16,17,17,17,16,17,17,16,17,16,17,17,16,18,15,17,18,15,19,15,16,17,17,19,16,15,17,16,17,17,17,17,15,18,16,17,17,16,17,17,17,17,16,16,17,16,19,15,16,17,17,19,14,17,17,16,19,15,16,19,15,16,17,17,17,15,17,17,16,19,15,16,17,17,16,17,17,17,16,17,17,16,17,17,17,16,17,17,15,18,16,17,18,15,17,16,17,18,15,17,17,17,16,17,17,16,17,16,18,15,18,16,16,17,17,18,15,17,17,16,18,16,17,16,19,16,15,17,17,17,16,16,18,16,16,17,16,17,18,16,16,17,17,18,15,17,17,16,18,16,16,17,16,19,14,17,17,16,17,18,16,17,16,17,16,17,17,17,16,17,17,17,16,17,17,16,18,16,15,17,17,16,17,17,17,16,17,18,15,17,17,17,16,17,17,16,17,17,16,18,15,17,16,17,19,15,16,17,17,16,17,17,17,16,17,17,16,17,17,17,16,16,18,15,17,17,16,19,15,17,16,17,18,16,16,17,17,18,15,17,17,16,17,17,16,17,16,18,15,17,18,15,17,17,17,17,16,17,17,16,18,16,16,17,17,18,14,17,17,16,17,17,16,18,16,17,16,17,17,16,17,17,17,17,16,17,16,17,18,16,16,16,17,18,16,16,17,17,16,17,17,16,16,18,16,16,18,16,17,16,17,17,16,17,17,17,17,16,17,16,17,18,16,16,16,17,16,17,17,17,16,17,17,16,17,17]",
        "number_of_frames": 483,
        "canvas_width": 2560,
        "canvas_height": 1440,
        "blanking": false,
        "staircase": false,
        "trial_type": "disks",
        "trial_index": 11,
        "time_elapsed": 66525,
        "internal_node_id": "0.0-11.0-0.0"
    },
    {
        "animation_sequence": "[{\"stimulus\":{\"id\":\"red-dot\",\"x\":424,\"y\":424,\"width\":112,\"height\":112},\"time\":1007},{\"stimulus\":{\"id\":\"green-dot\",\"x\":424,\"y\":424,\"width\":112,\"height\":112},\"time\":2006}]",
        "responses": "[]",
        "trial_type": "animation",
        "trial_index": 12,
        "time_elapsed": 69534,
        "internal_node_id": "0.0-12.0"
    },
    {
        "rt": -1,
        "key_press": -1,
        "correct": false,
        "id": "disk-condition-11-1",
        "choices": [],
        "correct_choice": [
            "R"
        ],
        "trial_duration": 8000,
        "response_ends_trial": true,
        "central_intensity": 0.9,
        "surround_intensity": 0.45,
        "central_radius": 2,
        "surround_radius": 4,
        "ratio": 2,
        "speed": 1124,
        "direction": 1,
        "field_spacing": 96,
        "background_color": "gray",
        "frame_rate": 16.83157894736842,
        "frame_rate_array": "[1,10,4,27,1,8,12,31,17,17,18,15,17,17,16,17,17,17,16,17,17,16,17,17,16,17,16,17,18,15,17,16,17,18,16,16,17,17,16,17,17,17,16,17,17,15,18,16,17,16,18,17,15,17,17,17,18,15,17,16,17,18,16,16,17,17,16,16,17,17,16,17,17,16,18,16,16,17,17,18,15,17,17,16,18,16,17,16,16,19,14,17,17,17,16,17,17,17,16,17,17,16,17,17,16,17,17,17,16,17,17,15,19,15,16,17,18,18,14,17,17,16,17,17,17,16,17,17,16,17,17,17,16,16,18,17,15,17,17,16,19,15,16,17,17,19,14,17,17,16,17,17,17,16,17,17,16,16,18,15,17,18,16,18,15,17,16,17,19,15,16,17,17,16,17,17,17,16,17,17,16,17,151,5,12,12,12,12,12,17,18,15,17,17,17,16,17,16,17,16,17,18,15,18,16,16,17,17,17,16,17,17,16,18,16,17,16,17,18,15,16,17,17,16,17,17,17,16,17,17,16,17,17,16,17,17,17,16,17,17,16,18,15,17,16,17,19,14,17,17,16,17,17,16,17,17,17,16,17,17,17,16,17,17,17,15,17,17,16,19,15,16,17,17,18,15,17,17,16,17,17,16,17,17,17,15,18,17,15,17,17,17,18,15,17,16,17,19,14,17,57,12,11,12,12,13,18,17,14,17,17,17,16,17,17,17,16,17,17,16,18,16,16,17,17,17,15,18,16,16,18,17,16,17,16,18,16,17,19,14,18,15,17,17,16,17,17,16,17,17,16,17,17,17,15,17,17,16,19,14,17,18,17,15,17,17,17,16,17,17,16,17,17,16,17,17,17,16,17,17,16,18,15,16,17,17,19,14,17,17,16,17,17,17,16,17,17,16,17,17,17,15,18,17,17,15,17,17,17,18,16,15,17,17,19,14,17,17,16,17,17,16,17,17,17,16,17,17,15,17,17,17,18,15,17,16,17,18,16,16,17,17,16,17,17,16,17,19,14,17,18,16,16,17,16,18,15,17,18,16,16,17,16,17,17,17,16,17,17,16,17,17,17,16,17]",
        "number_of_frames": 475,
        "canvas_width": 2560,
        "canvas_height": 1440,
        "blanking": false,
        "staircase": false,
        "trial_type": "disks",
        "trial_index": 13,
        "time_elapsed": 77629,
        "internal_node_id": "0.0-13.0-0.0"
    }
]