[
    {
        "animation_sequence": "[{\"stimulus\":{\"id\":\"red-dot\",\"x\":424,\"y\":424,\"width\":112,\"height\":112},\"time\":1002},{\"stimulus\":{\"id\":\"green-dot\",\"x\":424,\"y\":424,\"width\":112,\"height\":112},\"time\":2003}]",
        "responses": "[]",
        "trial_type": "animation",
        "trial_index": 0,
        "time_elapsed": 3006,
        "internal_node_id": "0.0-0.0"
    },
    {
        "rt": -1,
        "key_press": -1,
        "correct": false,
        "id": "disk-condition-11-1",
        "choices": [],
        "correct_choice": [
            "R"
        ],
        "trial_duration": 8000,
        "response_ends_trial": true,
        "central_intensity": 0.9,
        "surround_intensity": 0.45,
        "central_radius": 2,
        "surround_radius": 4,
        "ratio": 2,
        "speed": 1124,
        "direction": 1,
        "field_spacing": 96,
        "background_color": "gray",
        "frame_rate": 10.03387703889586,
        "frame_rate_array": "[0,14,29,1,9,10,10,10,10,10,10,10,10,10,10,10,10,10,10,10,10,10,10,10,10,10,10,10,10,10,10,10,10,10,10,10,10,10,10,10,10,10,10,10,10,10,10,10,10,10,10,10,10,10,10,15,6,9,10,10,10,10,15,5,10,10,10,10,10,10,10,10,12,10,8,10,10,10,10,10,10,10,10,10,10,10,10,10,12,8,11,9,10,10,10,10,10,10,10,10,10,10,10,10,10,10,10,10,10,10,10,11,9,10,10,10,10,10,10,24,6,18,2,10,10,10,10,10,10,10,10,10,10,11,9,10,10,10,10,10,10,10,10,10,10,10,10,10,10,11,9,10,11,9,11,10,10,10,10,10,10,10,10,10,10,10,10,10,10,10,10,10,10,10,10,10,11,9,10,10,10,10,10,10,10,10,10,10,10,10,10,10,10,10,10,10,10,10,10,10,10,10,10,10,10,10,10,10,10,10,10,10,10,10,10,10,10,10,10,10,10,10,10,10,10,10,10,10,10,10,10,10,10,10,10,10,10,10,10,10,10,11,10,9,10,10,10,10,10,10,10,10,10,10,11,9,10,10,10,11,9,10,12,8,10,11,10,9,10,11,9,10,10,10,11,9,11,9,10,11,9,11,12,7,11,10,10,10,10,10,9,10,10,11,10,10,10,10,10,10,10,10,10,10,10,10,10,10,10,10,10,10,10,10,10,10,10,10,10,10,10,10,10,10,10,10,10,10,10,10,10,10,10,10,10,12,9,9,10,10,10,10,10,10,10,10,10,10,10,10,10,10,10,10,10,10,10,10,10,10,10,10,11,9,10,10,10,10,10,10,10,10,10,10,10,10,10,10,10,11,9,10,10,10,10,10,10,10,10,10,10,10,10,10,10,10,10,10,10,10,10,10,10,10,10,10,10,10,10,10,10,10,10,10,10,10,10,10,10,10,10,10,10,10,10,10,10,10,10,10,10,10,10,10,10,10,10,10,10,10,10,10,10,10,10,10,12,8,10,10,10,10,10,10,10,11,9,10,10,10,10,10,10,10,11,9,10,10,10,10,10,21,9,10,10,10,10,10,10,10,10,11,9,10,10,10,10,10,10,10,10,10,10,10,10,10,10,10,10,10,10,10,10,11,10,9,11,9,10,11,10,9,10,11,10,9,11,10,10,10,10,10,10,10,10,10,10,10,14,7,9,10,10,10,10,10,10,10,10,10,10,10,10,10,10,10,10,12,9,9,10,10,10,10,11,9,11,9,10,10,10,10,10,10,10,10,10,10,10,10,10,10,10,10,10,10,10,10,10,10,10,10,10,10,10,10,10,10,10,10,10,10,10,10,10,10,10,10,10,10,10,10,10,10,10,10,10,10,10,11,9,11,9,10,10,10,10,10,10,10,10,10,10,10,10,10,10,10,10,10,10,10,10,10,10,11,10,9,10,10,10,10,10,10,10,10,10,10,10,10,10,10,10,10,10,10,10,10,10,10,10,10,10,10,10,10,10,11,9,10,11,10,9,10,10,10,10,11,9,10,10,11,9,10,10,11,9,10,11,10,11,9,10,9,11,9,11,9,11,10,10,10,10,10,10,10,10,10,10,10,10,10,10,10,10,11,9,10,10,10,10,10,10,10,10,10,10,10,10,10,10,10,10,10,10,10,10,10,10,10,10,10,10,10,10,10,10,10,10,10,10,10,10,10,10,10,11,9,10,10,10,10,10,10,10,10,10,10,10,10,10,10,10,10,10,10,10,10,10,10,11,9,11,9,10,10,10,10,10,10,10,10,10,10,10,10,10]",
        "number_of_frames": 797,
        "canvas_width": 2560,
        "canvas_height": 1440,
        "blanking": false,
        "staircase": false,
        "trial_type": "disks",
        "trial_index": 1,
        "time_elapsed": 11106,
        "internal_node_id": "0.0-1.0-0.0"
    },
    {
        "animation_sequence": "[{\"stimulus\":{\"id\":\"red-dot\",\"x\":424,\"y\":424,\"width\":112,\"height\":112},\"time\":1002},{\"stimulus\":{\"id\":\"green-dot\",\"x\":424,\"y\":424,\"width\":112,\"height\":112},\"time\":2002}]",
        "responses": "[]",
        "trial_type": "animation",
        "trial_index": 2,
        "time_elapsed": 14109,
        "internal_node_id": "0.0-2.0"
    },
    {
        "rt": -1,
        "key_press": -1,
        "correct": false,
        "id": "disk-condition-11-1",
        "choices": [],
        "correct_choice": [
            "R"
        ],
        "trial_duration": 8000,
        "response_ends_trial": true,
        "central_intensity": 0.9,
        "surround_intensity": 0.45,
        "central_radius": 2,
        "surround_radius": 4,
        "ratio": 2,
        "speed": 1124,
        "direction": 1,
        "field_spacing": 96,
        "background_color": "gray",
        "frame_rate": 9.9812734082397,
        "frame_rate_array": "[0,11,2,27,1,0,10,10,10,10,10,10,10,10,10,10,10,10,10,11,9,10,10,10,10,10,10,10,10,10,10,10,10,10,10,10,10,10,10,10,10,10,10,10,10,10,10,10,10,10,10,10,10,10,10,10,10,10,10,10,10,10,10,10,10,10,10,11,10,9,10,10,10,10,10,10,10,10,10,10,10,10,10,10,10,10,10,10,11,10,9,11,9,10,10,10,10,12,8,11,9,11,9,10,11,9,10,10,10,10,10,10,10,10,11,9,10,11,9,10,10,10,10,10,10,10,10,11,10,10,10,9,10,11,9,10,11,9,10,10,10,11,10,10,10,10,10,10,10,10,10,10,10,10,10,10,10,10,10,10,10,10,10,10,10,10,10,10,10,10,10,10,10,10,10,10,10,10,10,18,2,10,10,10,10,10,10,10,10,10,10,10,10,10,11,10,9,10,10,10,10,10,10,10,10,10,10,10,10,10,10,10,10,10,10,10,10,10,10,10,10,10,10,10,10,10,10,10,10,10,10,10,10,10,10,10,10,10,10,10,10,10,10,10,10,11,10,9,10,10,11,9,10,10,10,10,11,10,9,10,11,10,9,10,10,10,10,11,9,10,11,10,10,10,10,10,10,10,10,10,10,10,10,11,9,12,8,10,10,10,12,8,11,9,10,10,10,10,10,10,10,10,10,10,10,10,10,10,10,10,10,10,10,12,8,10,10,10,10,10,10,10,10,10,10,10,10,10,10,10,10,10,10,10,10,10,10,10,10,10,10,10,10,10,10,10,10,10,10,10,10,10,10,10,10,10,10,10,10,10,10,10,10,10,10,10,10,10,10,10,10,10,10,10,10,10,10,10,10,10,10,10,10,12,8,10,10,10,10,11,9,10,10,10,10,10,10,10,10,12,8,10,10,10,10,10,10,10,10,10,10,10,10,10,10,10,10,10,10,10,10,10,10,10,10,10,10,10,10,10,10,10,10,10,10,10,10,10,10,10,10,10,10,10,10,10,11,9,10,10,11,9,10,12,9,11,8,10,10,11,10,9,10,10,10,11,9,11,9,10,10,10,11,9,10,10,10,10,10,10,10,10,11,10,10,9,10,10,10,10,10,10,10,10,10,11,10,9,11,9,11,9,10,11,10,10,10,10,9,11,10,10,10,10,10,10,10,10,10,10,10,10,10,10,10,10,10,10,10,10,10,10,10,10,10,10,10,10,10,10,10,10,10,10,10,10,11,10,9,10,10,10,10,10,10,10,11,11,9,9,10,10,10,10,10,11,9,10,10,10,10,10,10,11,9,10,10,11,9,10,10,10,10,10,10,10,10,10,10,10,10,10,10,10,10,10,10,10,10,10,10,10,10,10,10,10,10,10,10,10,10,10,10,10,10,10,10,10,10,10,10,10,10,10,10,10,10,10,10,10,10,10,10,10,10,10,10,11,9,10,10,10,10,10,10,10,10,10,10,11,9,11,9,10,10,10,10,11,10,10,9,10,10,11,9,10,10,10,11,9,10,11,10,10,9,10,10,10,10,10,11,10,10,10,10,10,9,11,10,10,10,10,10,10,10,10,10,10,10,10,10,10,10,10,10,10,10,10,10,10,10,10,10,10,10,10,10,10,10,10,10,10,10,10,10,10,10,10,10,11,9,10,10,10,10,10,10,10,10,10,10,10,10,10,10,10,10,10,10,10,10,10,10,10,10,10,10,10,10,10,10,10,10,10,10,10,10,10,10,10,10,10,10,10,10,10,10,10,10,10,10,10,10,10,10,10,10,10,10,10,10,10,10,10,11,9,10,10,10,10,10]",
        "number_of_frames": 801,
        "canvas_width": 2560,
        "canvas_height": 1440,
        "blanking": false,
        "staircase": false,
        "trial_type": "disks",
        "trial_index": 3,
        "time_elapsed": 22149,
        "internal_node_id": "0.0-3.0-0.0"
    },
    {
        "animation_sequence": "[{\"stimulus\":{\"id\":\"red-dot\",\"x\":424,\"y\":424,\"width\":112,\"height\":112},\"time\":1002},{\"stimulus\":{\"id\":\"green-dot\",\"x\":424,\"y\":424,\"width\":112,\"height\":112},\"time\":2002}]",
        "responses": "[]",
        "trial_type": "animation",
        "trial_index": 4,
        "time_elapsed": 25152,
        "internal_node_id": "0.0-4.0"
    },
    {
        "rt": -1,
        "key_press": -1,
        "correct": false,
        "id": "disk-condition-11-1",
        "choices": [],
        "correct_choice": [
            "R"
        ],
        "trial_duration": 8000,
        "response_ends_trial": true,
        "central_intensity": 0.9,
        "surround_intensity": 0.45,
        "central_radius": 2,
        "surround_radius": 4,
        "ratio": 2,
        "speed": 1124,
        "direction": 1,
        "field_spacing": 96,
        "background_color": "gray",
        "frame_rate": 10.144670050761421,
        "frame_rate_array": "[0,11,2,27,0,10,10,10,10,10,10,10,10,10,10,10,10,10,10,10,10,10,10,10,10,10,10,10,12,8,10,10,10,10,10,10,10,10,10,10,12,10,8,10,10,10,10,10,10,10,10,10,10,10,10,10,10,10,10,10,10,10,10,10,10,10,10,10,10,10,10,10,10,10,10,10,10,10,10,10,13,7,10,10,11,9,10,10,10,10,10,10,10,11,10,10,9,10,10,10,10,10,11,9,10,11,9,11,10,9,10,10,10,10,10,11,9,10,11,10,10,10,9,11,10,10,10,10,10,10,10,10,10,10,10,10,10,10,10,10,10,10,10,10,10,10,10,10,10,10,10,10,10,10,10,10,10,10,10,10,10,10,10,11,9,10,10,10,10,10,10,10,10,10,10,10,10,10,10,10,10,10,10,10,10,10,10,10,10,10,10,10,11,9,10,10,10,10,10,10,10,10,10,10,10,10,10,10,10,10,10,10,10,10,10,10,10,12,8,10,10,10,10,10,10,10,10,10,10,10,10,10,10,10,10,10,10,10,10,10,10,10,10,10,10,10,10,10,10,10,10,10,10,10,10,10,11,10,10,10,9,10,10,10,10,10,10,10,10,10,11,9,10,10,10,10,11,10,10,10,10,9,11,10,10,10,10,10,9,11,10,9,11,10,10,10,10,10,27,3,22,8,10,10,10,10,10,10,10,10,10,10,10,10,10,10,10,10,10,10,10,10,10,10,10,10,11,9,10,11,9,11,9,10,10,10,10,10,10,10,10,10,10,10,10,10,10,10,10,10,10,12,8,10,10,10,10,10,10,10,10,10,10,10,10,10,10,10,10,10,10,10,10,10,10,10,10,10,10,10,10,10,10,10,10,10,10,10,10,10,10,10,10,10,10,11,11,11,7,10,10,10,10,11,9,10,10,10,10,10,10,10,10,10,10,10,10,10,10,10,10,10,10,10,10,10,10,10,10,10,10,10,114,6,10,10,10,10,10,10,10,10,13,7,11,10,9,10,10,10,11,9,10,10,10,10,10,10,10,11,10,10,10,9,10,11,9,10,11,10,10,10,10,10,10,10,10,10,10,10,10,10,10,10,10,10,10,10,10,10,10,10,10,10,10,10,10,10,10,10,10,10,10,10,10,10,10,10,10,10,10,10,10,10,10,10,10,10,10,10,10,10,10,10,10,10,10,10,10,10,10,10,10,10,10,10,10,10,10,10,10,10,10,10,10,10,10,10,10,10,10,11,9,10,10,10,10,10,10,10,10,10,10,10,10,10,10,10,10,10,10,10,10,10,10,10,10,10,10,10,10,10,10,10,10,10,10,10,10,10,10,10,10,10,10,10,10,12,8,10,10,10,10,10,10,10,10,10,10,10,10,10,10,10,10,10,10,10,10,10,10,11,9,10,10,10,10,10,10,10,10,10,10,10,12,9,10,9,10,10,10,10,11,10,10,10,10,9,10,10,10,10,11,10,10,10,10,10,10,10,10,10,10,10,10,10,10,10,10,10,10,10,10,10,10,10,10,10,10,10,10,10,10,10,10,10,10,10,10,10,10,10,10,10,10,10,10,10,10,10,10,10,10,10,10,10,10,10,10,10,10,10,10,10,10,10,10,10,10,10,10,10,10,10,10,10,10,10,10,10,10,10,10,10,10,10,10,12,8,10,10,10,10,10,10,10,11,11,8,10,10,10,10,10,10,10,10,10,10,11,10,9,11,9,10,10,10,10,10,10,10,10,10,10,10,10,10,10,11,9,10,10,10,10,10,10,10,10]",
        "number_of_frames": 788,
        "canvas_width": 2560,
        "canvas_height": 1440,
        "blanking": false,
        "staircase": false,
        "trial_type": "disks",
        "trial_index": 5,
        "time_elapsed": 33206,
        "internal_node_id": "0.0-5.0-0.0"
    },
    {
        "animation_sequence": "[{\"stimulus\":{\"id\":\"red-dot\",\"x\":424,\"y\":424,\"width\":112,\"height\":112},\"time\":1002},{\"stimulus\":{\"id\":\"green-dot\",\"x\":424,\"y\":424,\"width\":112,\"height\":112},\"time\":2001}]",
        "responses": "[]",
        "trial_type": "animation",
        "trial_index": 6,
        "time_elapsed": 36211,
        "internal_node_id": "0.0-6.0"
    },
    {
        "rt": -1,
        "key_press": -1,
        "correct": false,
        "id": "disk-condition-11-1",
        "choices": [],
        "correct_choice": [
            "R"
        ],
        "trial_duration": 8000,
        "response_ends_trial": true,
        "central_intensity": 0.9,
        "surround_intensity": 0.45,
        "central_radius": 2,
        "surround_radius": 4,
        "ratio": 2,
        "speed": 1124,
        "direction": 1,
        "field_spacing": 96,
        "background_color": "gray",
        "frame_rate": 10.016290726817042,
        "frame_rate_array": "[0,9,1,17,24,1,7,10,10,10,10,10,10,10,10,11,9,10,10,10,10,10,10,10,10,10,10,10,10,10,10,10,10,10,10,10,10,10,10,10,10,10,10,10,10,10,10,10,10,10,10,10,10,10,10,10,10,10,10,10,10,10,10,10,12,8,11,9,10,11,10,9,10,10,10,10,10,10,10,10,10,10,10,10,10,10,10,11,9,10,11,9,10,10,11,12,9,9,10,10,9,11,11,9,10,9,11,10,10,10,10,10,10,10,10,10,10,10,10,10,10,10,10,10,10,10,10,10,10,10,10,10,10,10,10,10,10,10,10,10,10,10,10,10,10,10,10,10,10,11,9,10,11,10,9,10,10,11,10,9,10,10,10,10,11,9,10,10,10,10,10,10,10,10,10,10,10,10,10,10,10,11,9,11,9,10,10,10,11,10,9,10,10,10,10,10,10,10,10,10,10,33,7,10,10,10,10,10,10,10,10,10,10,10,10,10,10,10,10,10,10,10,11,10,9,12,8,10,10,10,10,10,10,10,10,10,10,10,10,10,10,10,10,10,10,10,10,10,10,11,9,10,10,11,10,10,10,10,10,10,10,10,10,10,10,11,9,10,10,10,10,10,10,9,11,12,8,11,9,10,10,10,10,10,10,10,10,10,10,10,10,10,10,10,10,10,10,10,10,10,10,10,10,10,10,10,10,10,10,10,10,10,10,10,10,10,10,10,10,10,10,10,10,10,10,10,10,10,10,10,10,10,10,10,10,10,10,10,10,10,10,10,10,10,10,10,10,10,10,10,10,10,10,10,10,11,9,10,10,10,10,10,10,10,10,10,10,10,10,10,10,10,10,10,10,10,10,10,10,10,12,8,10,10,10,10,11,9,10,10,11,10,11,8,10,10,10,10,10,10,10,10,10,10,10,10,10,10,10,11,9,10,10,10,10,10,10,10,10,11,9,11,10,10,9,10,10,10,10,10,10,10,10,10,10,10,10,10,10,10,10,10,11,9,10,10,11,10,10,9,11,9,10,10,10,10,10,10,10,10,10,11,10,9,10,10,11,10,9,11,10,10,10,10,10,10,10,10,10,10,10,10,10,10,11,9,10,10,10,10,11,11,8,10,10,10,10,10,10,10,10,10,10,10,10,10,10,10,10,10,10,10,10,10,10,10,10,11,10,9,10,10,10,10,10,10,10,10,10,10,10,10,10,10,10,10,10,10,10,10,10,10,10,10,10,10,10,10,10,10,10,10,10,10,10,10,10,10,10,10,10,10,10,10,10,10,10,10,10,10,10,10,10,10,10,10,10,10,10,10,10,10,10,11,10,9,13,7,10,11,9,10,10,10,10,10,10,10,10,10,10,14,8,10,9,9,10,10,10,10,10,10,10,10,10,10,10,10,10,10,10,10,10,10,10,11,9,10,10,11,9,10,11,10,9,10,10,10,10,10,10,11,9,10,10,11,10,9,11,10,9,11,10,10,10,10,10,10,10,10,10,10,10,11,9,10,10,10,10,10,10,10,10,10,10,10,10,10,10,10,10,10,10,10,10,10,10,10,10,10,10,10,10,10,10,10,10,10,10,10,10,10,10,10,10,10,10,10,10,10,10,12,8,10,10,10,10,10,10,10,10,10,10,10,10,10,10,10,10,11,10,10,9,10,10,10,10,10,10,10,10,10,10,10,10,10,10,10,11,11,10,8,10,10,10,10,10,10,10,10,10,10,10,10,10,11,9,10,10,10,10,10,10,10,10,10,10,10,10,10,10,10,10,10,10,10,11,10,10,9,10,11,9,10,11,9,10,10]",
        "number_of_frames": 798,
        "canvas_width": 2560,
        "canvas_height": 1440,
        "blanking": false,
        "staircase": false,
        "trial_type": "disks",
        "trial_index": 7,
        "time_elapsed": 44263,
        "internal_node_id": "0.0-7.0-0.0"
    },
    {
        "animation_sequence": "[{\"stimulus\":{\"id\":\"red-dot\",\"x\":424,\"y\":424,\"width\":112,\"height\":112},\"time\":1002},{\"stimulus\":{\"id\":\"green-dot\",\"x\":424,\"y\":424,\"width\":112,\"height\":112},\"time\":2005}]",
        "responses": "[]",
        "trial_type": "animation",
        "trial_index": 8,
        "time_elapsed": 47267,
        "internal_node_id": "0.0-8.0"
    },
    {
        "rt": -1,
        "key_press": -1,
        "correct": false,
        "id": "disk-condition-11-1",
        "choices": [],
        "correct_choice": [
            "R"
        ],
        "trial_duration": 8000,
        "response_ends_trial": true,
        "central_intensity": 0.9,
        "surround_intensity": 0.45,
        "central_radius": 2,
        "surround_radius": 4,
        "ratio": 2,
        "speed": 1124,
        "direction": 1,
        "field_spacing": 96,
        "background_color": "gray",
        "frame_rate": 10.400520156046815,
        "frame_rate_array": "[0,10,4,31,0,9,10,10,10,10,10,11,9,10,10,10,10,10,10,12,11,8,9,10,10,10,10,10,10,10,10,10,10,11,9,11,9,10,10,10,10,10,10,10,10,10,10,10,10,10,10,10,10,10,10,10,10,10,10,10,11,9,10,10,10,11,10,9,11,9,10,10,11,9,10,10,10,10,10,11,9,11,9,11,10,10,10,10,10,10,10,10,10,10,10,10,10,10,10,10,10,10,10,10,10,10,10,10,10,10,10,178,2,10,10,10,10,10,10,10,10,10,10,10,10,10,10,10,10,10,10,10,10,10,10,10,10,10,10,10,10,10,10,10,10,10,10,10,10,10,11,11,8,10,10,10,10,10,10,10,10,10,10,10,10,10,10,10,10,10,10,11,9,10,10,10,10,10,10,10,10,10,10,10,10,10,10,10,10,10,10,12,8,11,9,10,11,9,10,10,10,10,10,10,10,10,10,10,10,10,10,10,10,10,10,10,10,10,10,10,10,10,10,11,10,10,10,10,10,10,10,10,10,10,10,10,10,10,10,11,9,10,10,10,10,10,15,6,9,11,9,10,10,10,10,10,10,10,10,10,10,10,10,10,10,10,10,10,10,10,10,10,10,10,10,10,10,10,10,10,10,10,10,10,10,10,10,10,10,10,10,10,10,10,10,10,10,10,10,10,10,10,10,10,10,11,9,10,10,10,10,10,10,10,10,10,10,10,10,10,10,10,10,10,10,10,10,10,10,10,10,10,10,10,10,10,10,10,10,10,10,10,10,10,10,10,10,10,10,10,10,10,10,10,10,10,11,9,10,10,10,10,10,10,10,10,10,10,10,10,10,10,10,10,10,10,10,10,10,11,9,10,10,10,10,10,10,10,10,10,10,10,10,10,10,10,10,10,10,10,10,10,11,9,10,10,11,10,10,9,10,10,10,10,10,10,10,10,10,11,10,10,9,11,9,11,9,13,9,9,10,10,9,11,10,10,10,10,10,10,10,10,10,10,10,10,10,10,10,10,10,10,10,10,10,10,10,10,10,10,10,10,10,10,10,10,10,10,10,10,10,10,10,10,10,10,10,10,10,10,10,10,10,12,8,10,10,10,10,10,10,10,10,10,10,10,10,10,10,10,10,10,10,10,10,10,10,10,10,10,10,10,10,10,10,10,10,10,10,10,10,10,10,10,10,10,10,10,10,10,10,10,10,10,10,10,10,10,10,10,10,10,10,10,10,10,10,10,10,10,10,10,10,10,10,10,10,10,10,10,161,9,10,10,10,11,9,11,9,10,10,11,10,12,8,11,8,11,9,10,10,10,10,10,10,11,9,11,10,10,9,10,10,10,11,9,11,9,11,10,10,10,10,10,10,10,10,10,10,10,10,10,10,10,10,10,10,10,10,10,10,10,10,10,10,10,10,10,10,10,10,10,10,10,10,10,10,10,10,10,10,10,10,10,10,10,10,10,10,10,10,10,11,9,10,10,10,10,10,10,10,10,10,10,10,10,10,10,10,10,10,10,10,10,10,10,10,10,10,11,9,10,10,10,10,10,10,10,10,10,10,10,10,10,10,10,10,10,10,10,10,10,10,10,10,10,10,10,10,10,11,9,10,10,10,10,10,10,10,10,10,10,10,10,10,10,10,10,11,10,10,9,10,10,10,10,11,10,10,9,10,10,10,10,10,10,10,10,11,9,10,10,10,11,9,10,10,10,10,11,9,11,9,11,11,9,9,10,10]",
        "number_of_frames": 769,
        "canvas_width": 2560,
        "canvas_height": 1440,
        "blanking": false,
        "staircase": false,
        "trial_type": "disks",
        "trial_index": 9,
        "time_elapsed": 55314,
        "internal_node_id": "0.0-9.0-0.0"
    },
    {
        "animation_sequence": "[{\"stimulus\":{\"id\":\"red-dot\",\"x\":424,\"y\":424,\"width\":112,\"height\":112},\"time\":1005},{\"stimulus\":{\"id\":\"green-dot\",\"x\":424,\"y\":424,\"width\":112,\"height\":112},\"time\":2002}]",
        "responses": "[]",
        "trial_type": "animation",
        "trial_index": 10,
        "time_elapsed": 58319,
        "internal_node_id": "0.0-10.0"
    },
    {
        "rt": -1,
        "key_press": -1,
        "correct": false,
        "id": "disk-condition-11-1",
        "choices": [],
        "correct_choice": [
            "R"
        ],
        "trial_duration": 8000,
        "response_ends_trial": true,
        "central_intensity": 0.9,
        "surround_intensity": 0.45,
        "central_radius": 2,
        "surround_radius": 4,
        "ratio": 2,
        "speed": 1124,
        "direction": 1,
        "field_spacing": 96,
        "background_color": "gray",
        "frame_rate": 10.318709677419355,
        "frame_rate_array": "[1,10,2,32,1,6,10,10,10,10,10,10,11,9,10,10,10,10,10,11,9,11,9,10,11,9,11,9,10,10,10,10,10,10,10,10,10,10,10,10,10,11,9,11,10,10,9,11,9,11,10,10,10,10,10,10,9,10,11,10,10,10,10,10,10,10,10,10,10,10,10,10,10,10,10,10,10,10,10,10,10,10,10,10,10,10,10,10,10,10,10,10,10,10,10,10,10,10,10,10,10,10,10,10,10,10,10,10,10,10,10,10,10,10,10,10,10,10,10,10,10,10,10,10,10,10,10,10,10,10,10,10,11,11,8,10,10,10,10,10,10,10,10,10,10,11,10,9,10,10,10,10,10,10,10,10,10,10,10,10,10,10,10,10,10,10,10,10,10,10,10,10,10,10,10,10,10,10,10,10,10,10,10,10,10,10,10,10,10,10,10,10,10,10,10,10,10,10,11,9,10,10,10,10,10,10,13,7,10,11,9,10,11,10,10,10,9,11,10,9,11,10,10,10,10,9,11,9,10,10,10,11,10,10,9,10,10,11,9,10,11,10,10,10,10,10,10,10,10,10,10,10,10,10,10,10,10,10,10,10,10,10,10,10,10,10,10,10,10,10,10,10,10,10,10,10,10,10,10,10,10,10,10,10,10,10,10,10,10,10,10,10,10,10,10,10,10,10,10,10,10,12,8,11,11,8,10,10,10,10,10,10,10,10,10,10,10,10,10,10,10,10,10,10,10,10,10,10,10,10,10,10,10,10,10,10,10,10,10,10,10,11,9,10,10,10,10,10,10,10,10,10,10,10,10,10,10,10,10,10,10,10,10,10,10,10,10,10,10,10,10,10,10,10,10,10,10,11,9,10,10,10,10,10,10,10,10,10,11,9,10,10,10,10,11,9,10,10,11,11,8,10,10,10,10,10,177,4,10,10,10,10,10,10,10,10,10,10,10,10,10,10,10,10,10,10,10,10,10,10,10,10,10,10,10,10,10,10,10,10,12,9,9,10,10,10,10,10,10,10,10,10,10,10,10,10,10,10,10,10,10,10,10,10,10,11,12,9,8,10,10,10,10,11,9,11,9,10,10,10,10,10,10,10,10,10,10,10,10,10,10,10,10,10,10,10,10,86,4,10,10,10,10,10,10,10,10,10,10,10,10,10,10,10,10,10,10,10,10,10,10,10,10,10,10,10,10,10,12,9,10,9,10,10,10,10,10,10,10,10,10,10,10,10,10,10,10,10,10,10,10,10,10,10,10,10,10,10,10,11,9,10,11,10,10,9,10,10,11,9,11,10,10,9,10,10,10,10,10,10,11,10,10,10,10,10,10,10,10,10,10,10,10,10,10,10,10,10,10,10,10,10,10,10,10,10,10,10,10,10,10,10,10,10,10,10,10,10,10,30,10,10,10,10,10,10,10,10,10,10,10,10,11,9,10,10,10,10,10,10,10,10,10,10,10,10,10,10,10,10,10,10,10,10,10,10,10,10,10,11,9,10,10,10,10,10,10,10,10,10,10,10,10,10,10,10,10,10,10,10,10,10,10,10,10,10,10,10,10,10,10,10,10,10,10,10,10,10,10,10,10,10,11,9,10,10,10,10,10,10,10,10,10,10,10,10,10,10,10,10,10,10,10,10,12,12,6,10,10,10,12,9,10,9,10,10,10,10,10,10,10,10,10,10,10,10,10,10,10,10,10,10,11,11,10,8,10,11,10,9,10,10,11,9,11,10,10,9,11,10,10,10,10,10,10]",
        "number_of_frames": 775,
        "canvas_width": 2560,
        "canvas_height": 1440,
        "blanking": false,
        "staircase": false,
        "trial_type": "disks",
        "trial_index": 11,
        "time_elapsed": 66368,
        "internal_node_id": "0.0-11.0-0.0"
    },
    {
        "animation_sequence": "[{\"stimulus\":{\"id\":\"red-dot\",\"x\":424,\"y\":424,\"width\":112,\"height\":112},\"time\":1017},{\"stimulus\":{\"id\":\"green-dot\",\"x\":424,\"y\":424,\"width\":112,\"height\":112},\"time\":2005}]",
        "responses": "[]",
        "trial_type": "animation",
        "trial_index": 12,
        "time_elapsed": 69372,
        "internal_node_id": "0.0-12.0"
    },
    {
        "rt": -1,
        "key_press": -1,
        "correct": false,
        "id": "disk-condition-11-1",
        "choices": [],
        "correct_choice": [
            "R"
        ],
        "trial_duration": 8000,
        "response_ends_trial": true,
        "central_intensity": 0.9,
        "surround_intensity": 0.45,
        "central_radius": 2,
        "surround_radius": 4,
        "ratio": 2,
        "speed": 1124,
        "direction": 1,
        "field_spacing": 96,
        "background_color": "gray",
        "frame_rate": 10.115189873417721,
        "frame_rate_array": "[0,10,1,31,1,3,10,10,10,10,10,10,10,10,11,9,10,10,10,10,10,10,10,11,9,11,9,10,11,9,10,10,10,10,10,11,10,10,11,9,10,10,9,11,10,10,10,10,10,10,10,10,10,10,10,10,10,10,10,10,10,11,9,10,10,10,10,10,10,10,10,10,10,10,10,11,9,10,10,10,10,10,10,10,10,10,10,10,10,10,10,10,10,10,10,10,10,10,10,10,10,10,10,10,10,10,10,10,10,10,10,10,10,10,10,10,10,10,10,10,10,10,10,10,10,10,10,10,10,10,10,10,10,10,10,10,10,10,10,10,10,10,10,10,10,10,12,8,10,10,10,10,43,7,10,10,10,10,10,10,10,10,10,10,10,13,8,10,10,9,10,10,10,10,10,10,10,10,10,10,11,9,10,10,10,10,10,10,11,9,10,10,10,10,11,9,10,10,10,10,11,9,10,10,10,10,10,10,11,9,10,11,9,10,10,11,10,9,10,11,10,9,10,11,10,10,10,10,10,10,10,10,10,10,10,10,10,10,10,10,10,10,10,10,10,10,10,10,10,10,10,10,10,10,10,10,10,10,11,10,9,10,10,10,10,10,10,10,10,10,10,10,10,10,10,10,10,10,10,10,10,10,10,10,10,10,10,10,10,10,10,10,10,10,10,10,10,10,10,10,10,12,8,10,10,10,10,12,8,10,10,10,10,10,10,10,10,10,10,10,10,10,10,10,10,10,10,10,10,10,10,10,10,10,10,10,10,10,10,10,10,10,10,10,10,10,10,10,10,11,9,10,10,11,9,10,11,10,10,10,10,9,10,10,10,10,11,10,10,10,9,10,10,10,10,10,10,10,10,11,10,9,11,9,10,10,10,10,10,10,10,10,10,10,10,10,10,10,10,10,10,12,8,11,9,10,10,11,10,10,10,10,10,10,10,10,10,10,11,9,10,10,10,10,10,10,10,10,10,10,10,10,10,10,10,10,10,10,10,10,10,10,10,10,10,10,10,10,10,10,10,10,10,10,10,10,10,10,11,10,10,9,10,10,10,10,10,10,10,10,10,10,10,10,10,10,10,10,10,11,9,11,9,10,10,10,10,10,10,10,10,10,10,10,10,10,10,10,10,10,10,10,10,10,12,8,10,10,10,10,10,10,10,10,10,10,10,10,10,10,10,10,10,10,10,10,10,10,10,10,10,10,10,10,10,10,10,10,10,10,10,10,11,9,10,10,10,10,10,11,9,10,10,13,7,11,9,11,9,10,10,10,10,10,10,10,10,10,10,10,10,11,9,11,9,10,10,11,9,10,10,10,10,11,9,11,9,11,9,11,10,10,10,10,10,10,11,9,10,10,10,10,10,10,10,10,10,10,10,10,10,10,10,10,10,10,10,10,10,10,10,10,10,10,10,10,10,10,10,10,10,10,10,10,10,10,10,10,10,10,10,10,10,10,10,10,10,10,11,12,7,10,10,10,10,10,10,10,10,10,10,10,10,10,10,10,10,10,10,10,10,10,10,10,10,10,10,10,10,10,10,10,10,10,10,10,11,9,10,10,10,10,10,10,10,10,11,9,10,10,10,10,10,10,10,10,10,11,10,9,10,10,10,10,10,10,10,10,10,10,10,10,10,10,10,10,10,10,10,11,10,9,11,10,9,10,10,11,9,10,10,10,10,11,9,10,10,11,9,11,10,9,10,10,10,10,10,10,10,11,10,10,10,10,9,11,10,10,10,10,10,10,10,10,9,68,3,31,9,10,10,10,10,10,10,10,11,9,10,10]",
        "number_of_frames": 790,
        "canvas_width": 2560,
        "canvas_height": 1440,
        "blanking": false,
        "staircase": false,
        "trial_type": "disks",
        "trial_index": 13,
        "time_elapsed": 77443,
        "internal_node_id": "0.0-13.0-0.0"
    }
]