[
    {
        "animation_sequence": "[{\"stimulus\":{\"id\":\"red-dot\",\"x\":424,\"y\":424,\"width\":112,\"height\":112},\"time\":1002},{\"stimulus\":{\"id\":\"green-dot\",\"x\":424,\"y\":424,\"width\":112,\"height\":112},\"time\":2002}]",
        "responses": "[]",
        "trial_type": "animation",
        "trial_index": 0,
        "time_elapsed": 3004,
        "internal_node_id": "0.0-0.0"
    },
    {
        "rt": -1,
        "key_press": -1,
        "correct": false,
        "id": "disk-condition-11-1",
        "choices": [],
        "correct_choice": [
            "R"
        ],
        "trial_duration": 8000,
        "response_ends_trial": true,
        "central_intensity": 0.9,
        "surround_intensity": 0.45,
        "central_radius": 2,
        "surround_radius": 4,
        "ratio": 2,
        "speed": 1124,
        "direction": 1,
        "field_spacing": 96,
        "background_color": "gray",
        "frame_rate": 16.526859504132233,
        "frame_rate_array": "[0,9,2,31,1,3,11,13,13,17,17,16,17,16,17,18,15,17,17,17,16,17,16,17,16,17,18,16,17,16,17,17,16,17,17,16,17,17,17,16,17,17,16,18,15,16,17,17,19,14,17,17,16,17,17,17,16,17,17,16,17,17,16,16,17,18,17,15,17,17,16,19,15,16,17,17,18,15,17,17,16,17,17,15,18,16,18,15,17,18,15,17,17,17,18,15,17,16,17,18,16,16,17,17,16,17,16,17,16,17,17,16,18,16,17,16,17,18,15,17,17,16,18,16,17,16,17,18,15,16,18,17,15,17,17,17,16,17,17,16,18,16,16,17,17,17,16,17,17,16,18,15,17,17,16,19,14,17,18,16,16,17,17,17,15,17,18,16,18,15,17,17,16,18,16,16,17,17,18,15,16,17,17,18,15,17,20,13,19,14,17,17,16,17,17,16,17,17,16,18,16,18,15,17,16,17,18,15,17,17,16,16,18,17,16,16,17,17,17,17,16,17,16,17,17,17,16,17,16,18,16,16,17,17,17,16,17,17,17,17,15,18,16,16,19,15,16,17,17,16,17,17,17,16,17,17,16,17,16,17,17,17,17,16,16,17,17,17,16,16,17,17,18,15,17,17,16,19,15,17,16,17,16,17,17,16,17,18,15,17,17,18,17,15,16,17,17,16,17,17,17,16,17,16,17,18,16,15,18,17,16,16,17,17,16,17,17,16,18,16,16,17,17,17,16,17,17,16,17,17,16,17,17,17,16,17,16,17,18,14,18,17,16,16,17,17,17,16,17,17,16,18,16,16,17,17,17,16,17,17,17,17,16,16,16,17,19,14,17,17,16,17,17,17,17,16,17,16,17,17,17,16,17,17,17,16,17,15,18,18,15,16,18,16,16,17,17,17,16,17,17,16,17,17,17,16,17,17,15,17,17,17,18,15,17,16,17,19,14,17,17,16,18,16,16,18,16,17,17,16,18,15,17,17,17,17,16,17,16,17,18,15,16,18,17,15,17,17,17,16,17,17,16,18,16,16,17,17,17,16,17,17,17,17,16,17,16,17,18,15,17,16,17,19,15,15,18,16,17,17,16,17,17,16]",
        "number_of_frames": 484,
        "canvas_width": 2560,
        "canvas_height": 1440,
        "blanking": false,
        "staircase": false,
        "trial_type": "disks",
        "trial_index": 1,
        "time_elapsed": 11111,
        "internal_node_id": "0.0-1.0-0.0"
    },
    {
        "animation_sequence": "[{\"stimulus\":{\"id\":\"red-dot\",\"x\":424,\"y\":424,\"width\":112,\"height\":112},\"time\":1002},{\"stimulus\":{\"id\":\"green-dot\",\"x\":424,\"y\":424,\"width\":112,\"height\":112},\"time\":2002}]",
        "responses": "[]",
        "trial_type": "animation",
        "trial_index": 2,
        "time_elapsed": 14119,
        "internal_node_id": "0.0-2.0"
    },
    {
        "rt": -1,
        "key_press": -1,
        "correct": false,
        "id": "disk-condition-11-1",
        "choices": [],
        "correct_choice": [
            "R"
        ],
        "trial_duration": 8000,
        "response_ends_trial": true,
        "central_intensity": 0.9,
        "surround_intensity": 0.45,
        "central_radius": 2,
        "surround_radius": 4,
        "ratio": 2,
        "speed": 1124,
        "direction": 1,
        "field_spacing": 96,
        "background_color": "gray",
        "frame_rate": 16.518595041322314,
        "frame_rate_array": "[1,14,5,21,4,11,13,11,12,12,12,13,17,16,17,17,16,16,18,16,16,18,16,16,17,17,17,16,17,17,16,18,16,17,16,17,18,15,16,17,17,16,17,17,17,16,17,16,17,17,17,16,17,17,16,17,17,16,17,17,16,17,17,16,18,16,16,17,16,19,15,17,16,17,18,15,17,17,17,17,16,17,16,19,16,15,17,17,16,17,17,16,17,17,16,17,17,17,16,17,16,17,18,15,16,18,15,20,14,17,17,16,17,16,17,18,15,17,17,17,17,16,17,16,17,18,16,16,17,17,16,16,17,17,16,17,17,16,18,16,16,17,17,18,15,17,17,16,18,16,17,16,16,19,14,17,18,16,16,17,17,17,16,20,14,16,19,15,16,17,17,16,17,17,17,16,17,17,15,18,17,17,15,17,18,15,19,15,17,17,16,19,14,17,17,17,16,17,16,17,17,16,17,16,18,15,17,18,16,18,15,17,16,17,18,16,16,17,17,16,17,17,16,16,17,17,16,18,16,16,19,15,17,16,17,17,16,18,24,12,13,17,18,15,16,17,18,15,17,17,17,16,17,17,17,16,17,16,17,17,17,16,17,17,16,18,15,17,17,16,19,14,17,17,16,17,17,17,16,17,17,16,17,17,17,16,18,16,17,16,17,17,16,18,15,16,17,17,19,14,17,17,17,16,17,16,17,17,17,16,17,17,16,17,17,16,19,15,16,17,17,16,17,17,16,17,17,16,17,17,16,17,16,17,17,16,17,17,17,17,16,17,15,18,18,15,17,17,17,16,16,17,17,16,17,17,16,18,16,16,17,17,17,16,17,17,16,18,16,16,16,17,19,15,16,17,16,17,17,17,17,16,17,16,17,17,16,17,17,16,17,17,16,17,17,17,16,17,17,16,18,16,16,17,17,18,15,16,17,16,17,17,17,17,16,17,16,17,17,16,17,17,17,17,16,17,15,18,17,16,17,17,16,18,16,16,16,18,18,15,17,16,16,17,17,17,17,16,17,17,17,17,15,18,15,18,18,14,17,20,13,17,17,17,18,16,16,16,17,18,15,17,16,18,18,15,16,17,17,16,17,17,17,16]",
        "number_of_frames": 484,
        "canvas_width": 2560,
        "canvas_height": 1440,
        "blanking": false,
        "staircase": false,
        "trial_type": "disks",
        "trial_index": 3,
        "time_elapsed": 22199,
        "internal_node_id": "0.0-3.0-0.0"
    },
    {
        "animation_sequence": "[{\"stimulus\":{\"id\":\"red-dot\",\"x\":424,\"y\":424,\"width\":112,\"height\":112},\"time\":1001},{\"stimulus\":{\"id\":\"green-dot\",\"x\":424,\"y\":424,\"width\":112,\"height\":112},\"time\":2002}]",
        "responses": "[]",
        "trial_type": "animation",
        "trial_index": 4,
        "time_elapsed": 25203,
        "internal_node_id": "0.0-4.0"
    },
    {
        "rt": -1,
        "key_press": -1,
        "correct": false,
        "id": "disk-condition-11-1",
        "choices": [],
        "correct_choice": [
            "R"
        ],
        "trial_duration": 8000,
        "response_ends_trial": true,
        "central_intensity": 0.9,
        "surround_intensity": 0.45,
        "central_radius": 2,
        "surround_radius": 4,
        "ratio": 2,
        "speed": 1124,
        "direction": 1,
        "field_spacing": 96,
        "background_color": "gray",
        "frame_rate": 16.544513457556935,
        "frame_rate_array": "[0,13,5,21,2,12,12,12,17,14,17,16,17,17,16,18,16,16,17,17,17,16,17,17,16,18,16,17,15,17,19,14,17,17,16,17,17,17,17,16,19,14,17,20,13,17,17,17,16,17,17,16,17,17,16,17,17,17,17,15,17,16,17,18,15,17,17,17,18,15,16,17,17,19,14,17,18,16,16,17,16,18,16,16,17,17,18,15,17,16,17,19,14,17,17,16,17,17,16,18,16,16,17,17,18,15,17,16,18,18,14,17,17,16,19,15,16,18,16,16,17,38,8,12,12,13,17,18,15,17,17,17,16,17,17,16,17,17,16,17,17,16,17,17,16,18,16,16,17,17,18,15,17,17,15,17,18,16,17,16,16,17,17,18,15,17,17,16,19,15,17,16,17,19,14,17,17,16,16,18,16,17,16,17,18,15,18,16,16,17,17,18,15,17,17,16,18,16,16,17,17,18,14,18,17,15,17,18,15,18,16,16,17,17,18,15,17,17,16,18,16,16,17,17,18,15,17,17,16,18,15,18,18,16,17,14,17,17,16,17,17,17,17,16,17,16,17,17,17,16,17,17,17,16,17,16,16,19,15,17,16,17,18,16,16,17,16,16,17,17,17,16,17,17,16,18,16,16,17,17,17,16,17,17,16,18,16,17,16,16,19,14,17,17,17,16,17,17,17,16,17,17,16,17,17,16,17,17,17,16,17,16,17,18,15,17,16,17,19,14,17,17,17,16,17,17,16,17,18,15,17,17,16,17,17,16,17,17,16,17,17,17,16,17,16,17,18,15,17,17,16,17,17,16,17,17,16,17,17,17,16,17,17,16,18,15,17,17,16,19,15,16,17,17,17,16,17,17,16,17,17,16,18,16,16,16,17,19,15,17,18,14,18,15,17,18,16,16,17,17,18,15,17,16,17,18,16,16,17,17,16,17,17,17,15,20,15,15,18,16,17,17,17,16,17,17,15,17,18,15,17,17,17,18,15,17,16,17,18,16,16,17,17,16,17,17,16,16,17,19,15,17,16,17,16,17,18,15,17,17,16,18,16,17,16,17,18,15,17,17,17,16,17,17,16,17,19,14,17,17,17,16,16]",
        "number_of_frames": 483,
        "canvas_width": 2560,
        "canvas_height": 1440,
        "blanking": false,
        "staircase": false,
        "trial_type": "disks",
        "trial_index": 5,
        "time_elapsed": 33282,
        "internal_node_id": "0.0-5.0-0.0"
    },
    {
        "animation_sequence": "[{\"stimulus\":{\"id\":\"red-dot\",\"x\":424,\"y\":424,\"width\":112,\"height\":112},\"time\":1002},{\"stimulus\":{\"id\":\"green-dot\",\"x\":424,\"y\":424,\"width\":112,\"height\":112},\"time\":2001}]",
        "responses": "[]",
        "trial_type": "animation",
        "trial_index": 6,
        "time_elapsed": 36285,
        "internal_node_id": "0.0-6.0"
    },
    {
        "rt": -1,
        "key_press": -1,
        "correct": false,
        "id": "disk-condition-11-1",
        "choices": [],
        "correct_choice": [
            "R"
        ],
        "trial_duration": 8000,
        "response_ends_trial": true,
        "central_intensity": 0.9,
        "surround_intensity": 0.45,
        "central_radius": 2,
        "surround_radius": 4,
        "ratio": 2,
        "speed": 1124,
        "direction": 1,
        "field_spacing": 96,
        "background_color": "gray",
        "frame_rate": 16.561076604554867,
        "frame_rate_array": "[0,9,7,8,12,12,12,24,14,17,17,16,17,17,17,16,17,17,16,17,17,17,16,17,17,17,16,17,17,16,17,17,16,16,18,17,16,16,17,17,18,14,17,17,16,17,17,17,17,16,17,16,17,17,17,16,17,17,17,16,16,18,15,19,15,16,17,17,18,15,17,17,16,19,15,16,17,17,18,15,17,17,16,17,17,16,17,16,17,16,18,17,16,16,17,17,18,15,17,16,17,18,16,16,17,17,16,17,17,17,15,17,17,16,18,16,17,16,17,17,16,17,17,17,17,16,17,16,17,18,15,17,17,16,16,17,17,17,16,17,17,16,18,16,26,7,34,1,15,17,19,15,17,15,17,17,16,18,15,17,18,16,18,15,17,16,17,19,15,16,17,17,18,15,17,18,15,20,13,17,18,15,17,17,16,18,16,16,17,17,16,17,17,16,17,17,17,16,17,17,15,18,16,18,15,17,17,16,19,15,16,17,17,16,17,17,17,16,17,17,16,17,17,17,16,16,18,15,17,17,17,18,15,17,16,17,18,15,17,17,17,16,17,17,16,17,16,17,16,18,16,16,17,17,18,15,17,17,16,18,16,17,16,17,18,15,17,17,17,15,17,17,17,16,17,17,16,18,16,16,17,17,17,16,17,17,16,18,16,16,16,18,18,15,17,16,16,17,17,17,17,16,17,16,17,17,17,16,17,17,17,16,17,17,15,19,15,16,17,17,16,17,17,17,16,17,17,16,17,17,19,14,16,18,16,17,16,17,17,16,17,17,17,17,16,17,16,17,18,15,16,17,17,16,17,17,17,16,17,17,16,17,17,17,16,17,17,16,17,17,17,17,16,16,17,16,19,14,17,17,17,16,17,17,16,17,17,17,16,17,17,15,18,17,17,15,17,17,16,19,15,17,16,17,18,15,17,16,26,9,16,16,17,17,18,15,17,16,17,18,16,16,17,17,16,17,17,16,16,17,18,15,18,16,16,17,17,18,15,17,17,16,18,16,17,16,17,18,15,16,18,16,16,17,17,17,16,17,16,17,18,16,16,17,17,17,16,17,17,16,18,16,16,16,18,18,14,17,17,16,17,17,17]",
        "number_of_frames": 483,
        "canvas_width": 2560,
        "canvas_height": 1440,
        "blanking": false,
        "staircase": false,
        "trial_type": "disks",
        "trial_index": 7,
        "time_elapsed": 44366,
        "internal_node_id": "0.0-7.0-0.0"
    },
    {
        "animation_sequence": "[{\"stimulus\":{\"id\":\"red-dot\",\"x\":424,\"y\":424,\"width\":112,\"height\":112},\"time\":1001},{\"stimulus\":{\"id\":\"green-dot\",\"x\":424,\"y\":424,\"width\":112,\"height\":112},\"time\":2002}]",
        "responses": "[]",
        "trial_type": "animation",
        "trial_index": 8,
        "time_elapsed": 47368,
        "internal_node_id": "0.0-8.0"
    },
    {
        "rt": -1,
        "key_press": -1,
        "correct": false,
        "id": "disk-condition-11-1",
        "choices": [],
        "correct_choice": [
            "R"
        ],
        "trial_duration": 8000,
        "response_ends_trial": true,
        "central_intensity": 0.9,
        "surround_intensity": 0.45,
        "central_radius": 2,
        "surround_radius": 4,
        "ratio": 2,
        "speed": 1124,
        "direction": 1,
        "field_spacing": 96,
        "background_color": "gray",
        "frame_rate": 16.565217391304348,
        "frame_rate_array": "[1,10,4,8,24,1,10,28,15,17,17,18,17,15,17,16,17,17,16,17,17,17,15,18,17,15,17,17,17,18,15,17,16,17,19,15,16,17,17,16,17,17,16,16,19,15,16,19,15,17,16,17,17,16,20,13,18,17,15,17,17,16,19,15,17,16,17,18,15,17,17,17,16,17,17,16,17,17,17,15,18,17,15,17,17,18,15,17,17,16,19,15,16,17,17,18,15,17,17,16,17,17,16,17,17,16,17,17,17,16,17,16,17,18,60,12,12,12,12,12,12,12,12,12,13,17,20,13,17,17,16,19,15,17,17,16,19,14,17,17,17,16,17,17,16,17,17,17,16,17,17,16,17,16,18,42,6,12,12,12,15,16,17,17,16,17,17,17,16,17,17,16,17,16,17,17,16,18,15,17,18,16,18,16,15,18,16,17,17,16,17,16,17,16,17,18,16,16,17,17,18,15,17,17,16,18,16,16,17,16,19,14,17,17,16,17,17,17,16,17,17,20,13,17,17,16,17,17,17,16,17,16,16,19,15,16,17,17,19,14,17,18,16,18,14,17,17,16,17,17,16,18,16,17,16,17,17,16,17,16,17,18,15,17,17,17,18,15,17,16,17,17,16,17,17,16,18,16,16,17,17,17,16,17,17,16,17,17,16,17,17,16,17,18,15,17,17,16,17,17,16,17,17,16,17,17,17,15,17,17,16,19,15,16,17,17,19,14,17,17,16,17,17,16,17,17,17,16,17,17,16,16,18,16,18,15,17,16,17,18,16,16,17,17,16,17,17,17,16,17,17,16,17,16,18,15,17,18,15,17,17,17,18,15,17,16,17,18,15,17,17,17,16,17,17,16,16,17,17,17,17,16,16,17,17,17,16,17,17,16,18,16,17,16,16,18,16,17,17,16,19,15,16,17,17,16,17,17,16,16,17,17,17,17,16,17,16,17,18,16,17,15,17,18,15,17,18,15,19,15,17,16,17,19,14,17,17,16,17,17,17,16,17,17,16,17,17,17,16,16,18,17,15,17,17,16,19,15,16,17,17,16,17,17,17,16,17,17,16,17,17,17,15,17,18,15,17,17,17,18,15,17,16]",
        "number_of_frames": 483,
        "canvas_width": 2560,
        "canvas_height": 1440,
        "blanking": false,
        "staircase": false,
        "trial_type": "disks",
        "trial_index": 9,
        "time_elapsed": 55466,
        "internal_node_id": "0.0-9.0-0.0"
    },
    {
        "animation_sequence": "[{\"stimulus\":{\"id\":\"red-dot\",\"x\":424,\"y\":424,\"width\":112,\"height\":112},\"time\":1001},{\"stimulus\":{\"id\":\"green-dot\",\"x\":424,\"y\":424,\"width\":112,\"height\":112},\"time\":2002}]",
        "responses": "[]",
        "trial_type": "animation",
        "trial_index": 10,
        "time_elapsed": 58468,
        "internal_node_id": "0.0-10.0"
    },
    {
        "rt": -1,
        "key_press": -1,
        "correct": false,
        "id": "disk-condition-11-1",
        "choices": [],
        "correct_choice": [
            "R"
        ],
        "trial_duration": 8000,
        "response_ends_trial": true,
        "central_intensity": 0.9,
        "surround_intensity": 0.45,
        "central_radius": 2,
        "surround_radius": 4,
        "ratio": 2,
        "speed": 1124,
        "direction": 1,
        "field_spacing": 96,
        "background_color": "gray",
        "frame_rate": 16.540372670807454,
        "frame_rate_array": "[0,9,1,16,13,8,10,16,16,15,18,18,16,16,17,16,16,17,17,17,16,17,17,17,16,17,17,16,17,17,16,17,17,16,17,17,16,17,17,17,16,17,16,17,18,14,18,17,16,17,17,16,17,16,20,13,17,18,15,17,17,16,19,15,17,16,17,18,15,17,17,17,16,17,17,16,16,17,17,16,18,16,16,17,17,18,15,17,17,16,18,16,17,16,17,18,15,16,17,16,17,17,17,17,17,19,13,17,18,16,16,17,17,17,17,16,16,17,18,15,17,17,16,18,16,16,17,17,18,15,17,17,15,17,17,17,17,16,17,16,17,18,16,16,17,17,17,16,17,17,16,18,16,16,17,17,15,18,16,18,15,19,15,16,17,17,19,14,17,17,16,17,17,16,18,16,17,16,17,17,15,18,17,16,18,15,18,16,16,19,15,16,17,17,16,17,17,17,16,17,17,15,18,16,17,17,16,18,15,17,17,17,18,15,17,16,17,18,15,17,17,16,18,16,17,16,17,16,17,17,17,16,17,16,17,17,16,17,17,16,18,16,16,17,17,18,15,17,19,14,17,17,15,18,16,17,17,16,18,15,17,17,16,18,16,17,16,17,18,15,17,17,17,16,16,17,17,16,17,17,16,18,16,16,17,17,17,16,17,17,16,18,16,16,17,17,16,17,17,16,17,17,16,17,17,16,17,17,16,18,16,16,17,17,18,15,16,17,17,18,15,17,17,16,17,17,17,16,17,18,15,16,18,16,17,16,17,17,16,16,17,17,18,15,17,17,16,18,16,17,16,18,17,16,16,16,18,17,16,17,18,15,18,14,17,17,16,17,17,17,17,17,16,16,17,17,17,16,17,17,17,15,18,16,17,17,17,16,16,18,17,16,17,16,17,18,15,16,17,17,19,14,17,17,16,17,17,17,16,17,17,16,17,17,16,17,17,17,17,15,17,16,17,19,15,16,17,17,16,17,17,17,16,17,17,16,17,16,17,16,18,17,15,17,17,17,18,15,17,16,17,18,15,17,17,17,16,16,18,16,16,17,17,16,18,16,17,16,17,17,16,17,17,17,17,16,17,16,17,18,15,17,17]",
        "number_of_frames": 483,
        "canvas_width": 2560,
        "canvas_height": 1440,
        "blanking": false,
        "staircase": false,
        "trial_type": "disks",
        "trial_index": 11,
        "time_elapsed": 66565,
        "internal_node_id": "0.0-11.0-0.0"
    },
    {
        "animation_sequence": "[{\"stimulus\":{\"id\":\"red-dot\",\"x\":424,\"y\":424,\"width\":112,\"height\":112},\"time\":1002},{\"stimulus\":{\"id\":\"green-dot\",\"x\":424,\"y\":424,\"width\":112,\"height\":112},\"time\":2001}]",
        "responses": "[]",
        "trial_type": "animation",
        "trial_index": 12,
        "time_elapsed": 69568,
        "internal_node_id": "0.0-12.0"
    },
    {
        "rt": -1,
        "key_press": -1,
        "correct": false,
        "id": "disk-condition-11-1",
        "choices": [],
        "correct_choice": [
            "R"
        ],
        "trial_duration": 8000,
        "response_ends_trial": true,
        "central_intensity": 0.9,
        "surround_intensity": 0.45,
        "central_radius": 2,
        "surround_radius": 4,
        "ratio": 2,
        "speed": 1124,
        "direction": 1,
        "field_spacing": 96,
        "background_color": "gray",
        "frame_rate": 16.544513457556935,
        "frame_rate_array": "[0,14,2,21,1,9,12,12,16,15,17,16,17,17,16,18,16,16,17,18,16,16,17,17,16,18,16,17,15,18,18,14,17,18,15,17,17,17,17,16,17,17,16,17,17,16,17,17,17,16,17,17,16,17,17,16,17,17,17,16,16,18,15,19,14,17,17,18,16,17,16,17,16,17,16,17,17,17,16,17,17,17,16,17,17,16,17,17,16,17,17,17,16,17,16,17,18,15,17,17,16,19,14,17,18,16,15,18,16,18,15,17,17,16,19,15,16,17,17,18,15,17,17,16,17,17,15,18,16,19,14,18,18,15,18,16,16,17,16,16,17,17,17,17,16,17,16,18,16,17,16,17,17,16,17,17,16,18,15,17,17,16,19,15,16,18,16,16,17,17,17,16,17,17,16,18,16,16,17,17,16,17,19,14,17,17,16,19,15,16,17,17,18,15,17,19,15,18,14,17,17,16,17,17,16,18,16,16,17,17,17,16,17,17,16,18,15,17,16,17,18,16,16,17,16,19,15,17,16,18,15,17,17,17,16,17,17,16,17,17,15,18,17,17,15,18,16,16,19,15,17,16,17,18,15,17,17,17,16,18,15,17,16,18,16,16,18,16,16,17,17,18,15,21,16,17,18,16,16,16,17,19,14,17,17,17,16,18,16,17,16,17,16,17,17,17,15,18,16,18,15,17,17,16,19,15,16,17,17,18,15,17,17,16,17,17,17,16,16,18,16,16,18,16,16,17,18,17,15,18,15,17,18,16,17,16,17,16,17,17,17,16,19,15,15,18,16,17,16,17,18,15,17,17,16,18,16,16,17,17,17,16,17,16,17,17,16,17,17,16,18,16,17,19,14,16,17,17,16,17,20,13,18,16,17,16,17,17,17,16,17,17,17,17,15,17,16,18,18,15,16,17,17,18,15,17,16,20,14,17,16,17,17,17,16,17,17,15,17,18,16,18,15,18,15,17,18,15,17,17,17,16,17,17,16,17,17,16,17,17,16,16,17,17,18,15,17,17,16,18,16,17,16,17,18,15,17,17,17,16,17,17,16,16,17,17,16,18,16,16,17,17,17,16,17,17,16,18,16,17,16,17,18]",
        "number_of_frames": 483,
        "canvas_width": 2560,
        "canvas_height": 1440,
        "blanking": false,
        "staircase": false,
        "trial_type": "disks",
        "trial_index": 13,
        "time_elapsed": 77652,
        "internal_node_id": "0.0-13.0-0.0"
    }
]