[
    {
        "animation_sequence": "[{\"stimulus\":{\"id\":\"red-dot\",\"x\":424,\"y\":424,\"width\":112,\"height\":112},\"time\":1000},{\"stimulus\":{\"id\":\"green-dot\",\"x\":424,\"y\":424,\"width\":112,\"height\":112},\"time\":2001}]",
        "responses": "[]",
        "trial_type": "animation",
        "trial_index": 0,
        "time_elapsed": 3004,
        "internal_node_id": "0.0-0.0"
    },
    {
        "rt": -1,
        "key_press": -1,
        "correct": false,
        "id": "disk-condition-11-1",
        "choices": [],
        "correct_choice": [
            "R"
        ],
        "trial_duration": 8000,
        "response_ends_trial": true,
        "central_intensity": 0.9,
        "surround_intensity": 0.45,
        "central_radius": 2,
        "surround_radius": 4,
        "ratio": 2,
        "speed": 1124,
        "direction": 1,
        "field_spacing": 96,
        "background_color": "gray",
        "frame_rate": 16.570539419087137,
        "frame_rate_array": "[1,12,5,24,0,9,19,17,16,17,17,16,18,16,17,16,17,18,15,16,17,17,16,17,17,16,17,17,17,16,17,17,16,17,17,17,15,17,17,16,19,15,17,16,17,18,15,17,17,17,16,17,17,16,17,17,16,16,18,16,16,17,17,18,15,17,17,16,19,15,16,17,17,19,14,17,17,16,17,16,18,16,16,17,16,17,18,16,16,17,17,17,16,17,17,16,18,16,16,17,17,16,17,17,17,15,17,17,16,18,16,17,16,17,17,16,17,17,17,17,16,17,16,17,18,15,16,17,17,16,17,17,17,16,17,17,16,18,16,16,17,17,17,16,17,17,16,18,15,17,17,16,19,15,16,17,17,18,15,17,17,17,15,18,16,17,16,17,17,16,18,16,16,17,17,17,16,17,17,16,18,16,16,17,16,19,14,17,18,15,17,17,17,17,16,17,16,17,17,17,16,17,17,17,15,18,17,16,18,15,16,17,17,19,14,17,17,16,17,17,17,16,17,17,16,17,17,16,16,18,16,18,15,17,16,17,19,15,16,17,17,17,16,17,19,14,18,15,17,17,16,17,17,16,17,17,16,17,17,17,16,17,16,17,17,16,17,17,17,17,16,17,15,17,19,15,16,17,16,17,17,17,17,16,17,17,16,17,17,17,16,17,17,16,17,16,18,17,15,17,16,17,19,15,16,17,17,16,17,17,17,16,17,17,16,17,16,17,17,16,18,15,17,17,16,19,15,17,16,17,18,15,17,17,17,16,17,17,16,17,17,17,16,17,16,16,17,17,18,15,17,17,16,18,16,16,17,17,18,15,17,17,15,18,16,18,16,16,20,13,17,18,16,16,17,16,19,15,16,17,17,18,15,17,17,16,17,17,16,17,16,17,17,17,16,17,18,15,17,19,14,20,14,16,18,16,16,17,17,17,16,17,17,16,18,15,17,16,17,19,14,17,17,16,17,17,17,16,17,17,17,16,17,17,16,17,16,18,16,17,17,15,19,15,16,17,17,18,15,17,17,16,17,17,17,16,17,17,15,18,17,16,16,17,17,17,16,17,16,17,18,16,16,17,17,18,15,17,17,16,18,16]",
        "number_of_frames": 482,
        "canvas_width": 2560,
        "canvas_height": 1440,
        "blanking": false,
        "staircase": false,
        "trial_type": "disks",
        "trial_index": 1,
        "time_elapsed": 11109,
        "internal_node_id": "0.0-1.0-0.0"
    },
    {
        "animation_sequence": "[{\"stimulus\":{\"id\":\"red-dot\",\"x\":424,\"y\":424,\"width\":112,\"height\":112},\"time\":1001},{\"stimulus\":{\"id\":\"green-dot\",\"x\":424,\"y\":424,\"width\":112,\"height\":112},\"time\":2001}]",
        "responses": "[]",
        "trial_type": "animation",
        "trial_index": 2,
        "time_elapsed": 14112,
        "internal_node_id": "0.0-2.0"
    },
    {
        "rt": -1,
        "key_press": -1,
        "correct": false,
        "id": "disk-condition-11-1",
        "choices": [],
        "correct_choice": [
            "R"
        ],
        "trial_duration": 8000,
        "response_ends_trial": true,
        "central_intensity": 0.9,
        "surround_intensity": 0.45,
        "central_radius": 2,
        "surround_radius": 4,
        "ratio": 2,
        "speed": 1124,
        "direction": 1,
        "field_spacing": 96,
        "background_color": "gray",
        "frame_rate": 16.613305613305613,
        "frame_rate_array": "[1,10,5,25,0,11,12,12,17,14,16,17,17,17,16,17,17,16,17,17,17,16,17,16,16,19,15,16,17,17,19,14,17,17,16,19,15,16,17,17,18,15,17,19,14,17,16,17,17,16,17,17,16,19,15,16,17,17,19,14,17,19,14,17,17,16,17,17,16,17,17,17,16,16,17,16,19,15,17,39,11,12,13,11,14,17,19,14,17,16,17,18,16,16,16,18,16,16,17,17,16,17,17,16,17,17,16,17,17,17,16,17,17,16,18,15,17,17,17,18,14,17,17,17,16,17,17,17,16,17,17,16,18,16,16,17,17,17,15,17,17,16,19,15,16,17,17,19,14,17,17,16,17,17,17,16,17,17,16,17,17,16,16,18,16,18,15,17,17,16,19,15,16,17,17,16,17,17,17,16,17,17,16,17,17,17,16,16,18,15,17,18,16,18,15,17,16,17,19,15,16,17,17,16,17,17,17,16,16,17,16,18,16,17,16,17,17,16,17,17,16,18,16,16,17,18,17,16,16,17,16,19,14,17,17,16,19,15,16,17,17,16,17,17,16,17,17,17,16,17,16,17,17,17,17,15,17,18,15,19,15,16,17,17,19,14,17,17,16,17,18,93,11,12,12,12,12,12,12,14,10,15,17,17,16,19,15,16,17,17,16,17,17,17,15,17,18,16,17,16,17,16,17,18,15,17,17,17,17,16,17,16,17,18,16,16,17,16,16,18,16,17,16,20,14,16,18,16,17,16,17,18,15,17,17,17,17,16,16,16,18,18,15,16,17,17,16,17,17,17,16,17,17,16,17,17,17,16,16,18,15,17,17,17,18,15,17,18,16,18,14,17,17,17,19,14,17,16,17,17,16,17,18,15,17,17,16,18,16,16,17,17,16,17,17,17,16,17,17,16,17,17,16,17,17,17,16,17,16,17,18,15,17,19,14,18,15,17,17,17,17,16,17,16,17,18,15,17,17,16,17,17,16,17,17,16,17,17,17,16,17,16,17,18,15,17,17,17,16,17,17,16,16,17,17,16,18,16,16,17,17,18,15,17,17,16,18,16,16,17,17,17,16,17,18,15,18,16,16,17,17]",
        "number_of_frames": 481,
        "canvas_width": 2560,
        "canvas_height": 1440,
        "blanking": false,
        "staircase": false,
        "trial_type": "disks",
        "trial_index": 3,
        "time_elapsed": 22192,
        "internal_node_id": "0.0-3.0-0.0"
    },
    {
        "animation_sequence": "[{\"stimulus\":{\"id\":\"red-dot\",\"x\":424,\"y\":424,\"width\":112,\"height\":112},\"time\":1001},{\"stimulus\":{\"id\":\"green-dot\",\"x\":424,\"y\":424,\"width\":112,\"height\":112},\"time\":2004}]",
        "responses": "[]",
        "trial_type": "animation",
        "trial_index": 4,
        "time_elapsed": 25194,
        "internal_node_id": "0.0-4.0"
    },
    {
        "rt": -1,
        "key_press": -1,
        "correct": false,
        "id": "disk-condition-11-1",
        "choices": [],
        "correct_choice": [
            "R"
        ],
        "trial_duration": 8000,
        "response_ends_trial": true,
        "central_intensity": 0.9,
        "surround_intensity": 0.45,
        "central_radius": 2,
        "surround_radius": 4,
        "ratio": 2,
        "speed": 1124,
        "direction": 1,
        "field_spacing": 96,
        "background_color": "gray",
        "frame_rate": 16.53099173553719,
        "frame_rate_array": "[0,13,2,20,3,12,12,12,13,14,17,16,18,18,14,17,17,17,16,17,17,16,17,17,17,16,17,17,16,17,16,18,15,17,17,17,18,15,16,17,17,18,15,17,17,16,19,14,17,17,16,17,17,17,16,17,17,16,17,18,15,17,17,16,19,15,16,17,17,16,17,17,16,17,17,17,16,17,16,16,17,17,18,15,17,17,16,18,16,17,16,17,18,15,17,17,17,16,17,16,17,16,17,17,17,17,16,16,17,17,17,16,17,17,16,18,16,16,17,17,18,14,17,17,16,17,17,17,17,16,17,16,17,18,16,16,19,15,17,15,17,17,17,18,15,17,17,16,18,16,16,17,17,18,15,17,17,15,17,18,16,17,16,17,16,17,18,16,16,17,17,18,15,17,16,17,18,16,16,17,16,16,18,17,17,22,10,17,16,18,16,17,16,17,18,15,17,17,17,17,16,16,17,17,18,15,16,17,17,16,17,17,17,16,17,17,16,17,17,17,16,17,17,16,16,17,17,18,15,17,16,17,19,14,17,17,17,16,17,17,16,17,17,16,17,17,17,16,17,16,18,15,17,17,16,19,15,16,17,17,18,15,17,17,16,17,17,16,17,16,18,16,16,18,15,17,17,17,18,15,17,16,17,18,16,16,17,17,16,16,17,18,16,16,17,16,19,15,16,18,17,16,16,18,15,17,17,16,17,18,16,17,16,19,14,17,19,14,17,17,16,18,16,16,18,16,17,16,18,16,16,18,15,18,16,17,18,14,17,19,15,16,17,17,16,17,17,17,16,17,17,16,17,17,17,17,15,18,16,18,15,17,16,17,18,16,16,17,16,20,14,17,17,16,17,15,18,17,16,16,17,17,18,15,17,17,16,19,15,16,17,17,18,15,17,17,17,16,17,17,16,17,16,17,16,18,16,16,17,17,17,16,17,17,17,17,16,17,16,17,18,15,16,17,17,17,16,17,17,16,17,17,16,17,17,16,17,17,16,17,19,15,16,17,17,16,17,17,17,16,17,16,17,18,15,17,17,16,17,17,16,17,17,17,16,17,17,15,17,17,16,18,16,17,16,17,17,16,17,17,17,17,15,17]",
        "number_of_frames": 484,
        "canvas_width": 2560,
        "canvas_height": 1440,
        "blanking": false,
        "staircase": false,
        "trial_type": "disks",
        "trial_index": 5,
        "time_elapsed": 33276,
        "internal_node_id": "0.0-5.0-0.0"
    },
    {
        "animation_sequence": "[{\"stimulus\":{\"id\":\"red-dot\",\"x\":424,\"y\":424,\"width\":112,\"height\":112},\"time\":1005},{\"stimulus\":{\"id\":\"green-dot\",\"x\":424,\"y\":424,\"width\":112,\"height\":112},\"time\":2002}]",
        "responses": "[]",
        "trial_type": "animation",
        "trial_index": 6,
        "time_elapsed": 36279,
        "internal_node_id": "0.0-6.0"
    },
    {
        "rt": -1,
        "key_press": -1,
        "correct": false,
        "id": "disk-condition-11-1",
        "choices": [],
        "correct_choice": [
            "R"
        ],
        "trial_duration": 8000,
        "response_ends_trial": true,
        "central_intensity": 0.9,
        "surround_intensity": 0.45,
        "central_radius": 2,
        "surround_radius": 4,
        "ratio": 2,
        "speed": 1124,
        "direction": 1,
        "field_spacing": 96,
        "background_color": "gray",
        "frame_rate": 16.50413223140496,
        "frame_rate_array": "[1,14,5,13,9,12,12,13,11,12,12,12,12,17,16,17,17,17,15,18,17,15,19,15,17,16,17,19,14,17,17,17,16,17,17,16,17,17,17,16,17,17,15,17,17,18,15,17,17,16,20,14,16,17,17,18,15,17,17,16,17,17,17,16,16,19,15,17,17,16,16,17,16,18,16,17,16,17,18,15,17,17,16,18,16,17,16,17,18,15,17,17,16,17,17,16,17,17,16,17,16,18,16,16,17,17,17,16,17,17,16,18,16,16,16,17,19,14,17,17,18,15,17,17,16,17,19,14,17,17,16,20,14,16,18,17,15,17,17,18,15,17,17,16,18,16,16,17,18,17,15,16,17,17,16,17,17,17,16,17,17,16,17,16,17,17,16,18,15,17,18,16,18,15,17,16,17,19,14,17,18,15,20,14,16,18,16,16,17,17,18,15,17,17,16,18,16,16,17,17,18,15,16,18,16,17,17,16,17,16,17,16,17,17,17,16,17,17,17,16,17,16,17,18,16,16,17,16,19,15,16,17,17,18,14,17,17,16,20,14,16,17,17,17,16,17,17,16,17,17,17,17,16,17,16,16,19,15,17,16,17,16,17,17,17,16,17,17,16,17,17,17,16,17,17,15,18,16,17,18,15,17,16,17,19,14,17,17,17,18,15,18,15,17,17,17,16,17,17,16,16,17,18,15,17,17,17,18,15,17,16,17,18,15,17,17,17,16,17,17,16,17,17,16,17,17,16,17,17,16,18,15,17,17,17,16,17,17,16,17,19,14,17,18,16,15,17,17,18,15,17,17,16,18,16,16,17,17,18,15,17,17,15,18,16,18,16,16,17,16,17,18,15,17,17,17,17,16,17,16,17,18,16,16,17,17,16,17,17,16,17,17,17,16,17,16,17,17,17,17,15,18,15,17,19,15,16,18,16,17,17,16,17,16,18,15,17,17,17,16,17,17,17,16,17,16,17,18,16,16,17,17,17,16,17,16,16,19,14,17,18,16,16,17,17,17,16,17,17,16,17,17,16,17,17,17,16,17,17,16,17,17,16,17,16,18,15,18,16,17,18,14,17,17,17,16,17,17,16,17,17,17,16,17]",
        "number_of_frames": 484,
        "canvas_width": 2560,
        "canvas_height": 1440,
        "blanking": false,
        "staircase": false,
        "trial_type": "disks",
        "trial_index": 7,
        "time_elapsed": 44341,
        "internal_node_id": "0.0-7.0-0.0"
    },
    {
        "animation_sequence": "[{\"stimulus\":{\"id\":\"red-dot\",\"x\":424,\"y\":424,\"width\":112,\"height\":112},\"time\":1002},{\"stimulus\":{\"id\":\"green-dot\",\"x\":424,\"y\":424,\"width\":112,\"height\":112},\"time\":2002}]",
        "responses": "[]",
        "trial_type": "animation",
        "trial_index": 8,
        "time_elapsed": 47344,
        "internal_node_id": "0.0-8.0"
    },
    {
        "rt": -1,
        "key_press": -1,
        "correct": false,
        "id": "disk-condition-11-1",
        "choices": [],
        "correct_choice": [
            "R"
        ],
        "trial_duration": 8000,
        "response_ends_trial": true,
        "central_intensity": 0.9,
        "surround_intensity": 0.45,
        "central_radius": 2,
        "surround_radius": 4,
        "ratio": 2,
        "speed": 1124,
        "direction": 1,
        "field_spacing": 96,
        "background_color": "gray",
        "frame_rate": 16.684759916492695,
        "frame_rate_array": "[0,12,2,26,1,8,12,27,18,16,17,16,17,16,17,16,17,17,16,17,17,16,17,17,17,16,17,17,16,18,16,17,16,16,19,14,18,16,17,16,17,17,17,16,17,17,16,96,5,12,12,12,13,16,19,16,16,16,17,19,14,17,17,16,17,17,16,18,16,16,17,17,18,15,17,19,14,19,14,17,17,16,20,14,16,18,16,16,17,17,18,16,16,16,17,19,14,17,17,16,17,17,16,18,16,16,17,17,18,15,17,16,17,18,16,16,17,17,15,18,17,17,15,17,18,15,18,16,20,13,17,18,15,20,14,16,18,16,16,17,17,18,15,17,17,16,19,14,17,17,16,17,17,16,18,16,16,17,17,18,15,17,17,16,18,15,17,17,16,19,14,17,18,16,16,18,16,17,16,17,17,16,18,16,16,17,17,17,15,17,17,17,18,16,15,18,16,19,14,17,18,15,20,14,16,20,14,16,17,17,17,16,17,17,17,17,16,16,17,16,19,15,16,21,17,16,17,17,17,16,16,17,16,18,16,17,16,18,16,17,17,15,18,17,15,17,17,17,18,15,17,16,17,18,16,16,17,17,16,17,17,17,16,17,17,15,18,17,15,17,17,18,15,17,17,16,18,16,17,16,17,18,15,17,17,17,16,17,17,16,16,17,17,16,18,16,16,17,17,17,16,17,17,16,18,16,16,17,17,18,14,17,18,15,17,17,17,17,16,17,16,17,17,17,16,17,17,17,16,17,17,15,19,15,16,17,17,17,16,17,17,16,17,16,18,17,15,17,18,16,18,15,16,29,12,12,14,17,17,16,17,17,16,17,17,17,16,17,17,16,17,16,18,17,15,17,16,17,19,15,16,17,17,16,17,17,17,16,17,17,16,18,16,16,17,17,17,16,17,16,16,19,15,16,18,16,19,14,17,17,16,17,17,17,16,17,18,15,17,16,19,15,17,16,17,17,17,15,18,17,16,17,16,17,17,16,19,14,17,18,16,16,17,17,17,16,17,16,17,18,16,16,17,17,18,15,17,16,17,16,17,17,17,16,16,17,17,18,15,17,16,17,18,15,17,17,17,16,17]",
        "number_of_frames": 479,
        "canvas_width": 2560,
        "canvas_height": 1440,
        "blanking": false,
        "staircase": false,
        "trial_type": "disks",
        "trial_index": 9,
        "time_elapsed": 55428,
        "internal_node_id": "0.0-9.0-0.0"
    },
    {
        "animation_sequence": "[{\"stimulus\":{\"id\":\"red-dot\",\"x\":424,\"y\":424,\"width\":112,\"height\":112},\"time\":1001},{\"stimulus\":{\"id\":\"green-dot\",\"x\":424,\"y\":424,\"width\":112,\"height\":112},\"time\":2002}]",
        "responses": "[]",
        "trial_type": "animation",
        "trial_index": 10,
        "time_elapsed": 58431,
        "internal_node_id": "0.0-10.0"
    },
    {
        "rt": -1,
        "key_press": -1,
        "correct": false,
        "id": "disk-condition-11-1",
        "choices": [],
        "correct_choice": [
            "R"
        ],
        "trial_duration": 8000,
        "response_ends_trial": true,
        "central_intensity": 0.9,
        "surround_intensity": 0.45,
        "central_radius": 2,
        "surround_radius": 4,
        "ratio": 2,
        "speed": 1124,
        "direction": 1,
        "field_spacing": 96,
        "background_color": "gray",
        "frame_rate": 16.57261410788382,
        "frame_rate_array": "[1,12,2,24,1,9,11,30,15,16,17,18,15,17,17,17,16,17,17,16,17,17,16,16,18,16,16,17,17,17,16,17,17,16,18,16,16,17,17,18,14,18,17,16,16,17,17,17,16,17,16,17,17,17,16,17,17,17,16,17,16,17,17,16,17,17,16,18,16,16,17,17,18,15,17,17,16,17,17,16,17,17,16,17,17,17,16,17,16,17,18,15,17,17,16,17,17,16,17,17,16,17,17,17,16,16,16,18,17,16,17,16,17,18,16,15,17,17,16,17,17,17,16,17,17,16,18,16,17,16,17,17,16,17,17,17,17,16,17,15,17,19,14,17,17,17,16,17,17,17,16,17,17,16,18,16,16,17,17,17,17,15,18,15,19,15,16,18,16,19,14,17,17,17,16,17,17,16,17,17,17,16,17,17,16,17,17,17,15,17,17,16,19,15,16,17,17,19,14,17,17,16,17,17,17,16,16,19,15,17,18,15,16,18,16,17,17,16,16,17,18,16,17,16,16,19,14,17,17,16,20,14,17,17,16,16,18,16,18,15,17,17,16,19,15,17,16,17,18,15,17,17,16,18,16,16,17,17,16,17,17,16,16,20,14,17,18,15,17,16,17,18,15,17,16,17,19,15,16,17,18,15,17,17,16,17,17,17,16,17,17,16,16,17,18,15,17,17,16,19,15,17,16,17,18,15,17,17,17,16,17,17,16,16,17,17,16,18,16,16,17,17,18,15,17,17,16,18,16,17,16,18,17,15,17,17,16,16,18,16,17,16,18,15,17,18,16,16,17,17,17,16,17,17,16,18,15,17,17,17,18,14,17,17,16,17,17,17,17,16,17,17,16,17,17,17,16,17,17,16,16,17,17,18,15,17,16,17,19,14,17,17,17,16,17,17,16,17,17,16,17,17,16,17,16,18,17,15,17,17,16,19,15,17,16,17,18,15,17,17,17,16,17,17,16,17,18,15,17,19,14,17,17,16,17,17,16,17,17,17,16,17,15,17,19,14,17,17,18,15,17,18,16,16,17,17,16,18,16,16,17,17,17,16,17,17,16,18,16,15,17,17,19,14,17,17,16,19,15,17,16,17]",
        "number_of_frames": 482,
        "canvas_width": 2560,
        "canvas_height": 1440,
        "blanking": false,
        "staircase": false,
        "trial_type": "disks",
        "trial_index": 11,
        "time_elapsed": 66511,
        "internal_node_id": "0.0-11.0-0.0"
    },
    {
        "animation_sequence": "[{\"stimulus\":{\"id\":\"red-dot\",\"x\":424,\"y\":424,\"width\":112,\"height\":112},\"time\":1002},{\"stimulus\":{\"id\":\"green-dot\",\"x\":424,\"y\":424,\"width\":112,\"height\":112},\"time\":2001}]",
        "responses": "[]",
        "trial_type": "animation",
        "trial_index": 12,
        "time_elapsed": 69515,
        "internal_node_id": "0.0-12.0"
    },
    {
        "rt": -1,
        "key_press": -1,
        "correct": false,
        "id": "disk-condition-11-1",
        "choices": [],
        "correct_choice": [
            "R"
        ],
        "trial_duration": 8000,
        "response_ends_trial": true,
        "central_intensity": 0.9,
        "surround_intensity": 0.45,
        "central_radius": 2,
        "surround_radius": 4,
        "ratio": 2,
        "speed": 1124,
        "direction": 1,
        "field_spacing": 96,
        "background_color": "gray",
        "frame_rate": 16.538302277432713,
        "frame_rate_array": "[0,12,2,19,5,12,12,12,17,14,16,17,17,17,16,17,17,16,18,16,17,16,17,16,16,19,15,17,16,17,19,14,17,17,16,17,17,17,16,17,19,14,17,19,14,17,17,16,18,16,17,16,17,18,14,18,15,18,18,15,17,17,17,15,17,17,17,16,17,17,16,17,17,17,16,17,17,16,17,16,18,17,15,17,17,17,17,16,17,16,17,18,16,16,17,15,19,16,17,16,17,18,15,17,16,16,19,15,17,17,16,18,15,18,15,17,19,15,16,17,17,16,17,17,17,16,17,17,16,17,17,62,5,12,12,12,12,12,12,12,15,17,16,17,18,15,17,17,17,16,17,17,16,17,17,16,17,17,16,17,17,17,18,15,17,16,16,19,15,17,16,17,16,18,15,18,16,16,18,16,18,16,17,16,17,18,14,18,17,15,20,15,15,20,14,16,18,16,18,15,17,17,16,19,15,16,17,17,16,17,17,16,17,17,16,17,17,16,17,17,17,17,15,17,16,17,19,15,16,17,17,16,18,16,16,17,19,14,17,17,17,16,17,17,16,17,17,17,16,17,17,16,17,16,18,15,17,17,16,19,15,16,17,17,18,15,18,16,16,17,17,17,16,16,17,16,17,18,16,16,17,17,18,16,16,17,16,18,16,16,17,17,18,15,17,16,17,18,15,17,18,15,17,16,17,17,16,17,17,17,16,17,17,16,19,15,16,18,17,15,17,16,18,16,16,18,16,17,16,19,15,16,17,17,16,17,17,17,16,17,17,16,18,15,17,16,17,18,16,16,17,17,18,15,17,16,18,17,16,16,16,17,16,17,17,17,16,17,17,17,17,16,17,16,17,17,17,16,17,17,17,16,17,17,15,19,15,16,17,17,19,14,17,17,16,17,17,17,16,17,17,16,17,17,17,16,17,16,18,15,17,17,16,19,15,16,17,17,16,17,17,17,16,17,17,16,17,17,16,16,17,18,15,17,17,17,18,15,17,16,17,18,16,16,17,17,16,17,17,16,16,18,16,16,18,16,17,16,17,18,15,17,17,16,18,16,17,16,17,18,15,17,17,17,15,18,16,17,17,17,16,16,17]",
        "number_of_frames": 483,
        "canvas_width": 2560,
        "canvas_height": 1440,
        "blanking": false,
        "staircase": false,
        "trial_type": "disks",
        "trial_index": 13,
        "time_elapsed": 77595,
        "internal_node_id": "0.0-13.0-0.0"
    }
]