[
    {
        "animation_sequence": "[{\"stimulus\":{\"id\":\"red-dot\",\"x\":424,\"y\":424,\"width\":112,\"height\":112},\"time\":1002},{\"stimulus\":{\"id\":\"green-dot\",\"x\":424,\"y\":424,\"width\":112,\"height\":112},\"time\":2001}]",
        "responses": "[]",
        "trial_type": "animation",
        "trial_index": 0,
        "time_elapsed": 3003,
        "internal_node_id": "0.0-0.0"
    },
    {
        "rt": -1,
        "key_press": -1,
        "correct": false,
        "id": "disk-condition-1-1",
        "choices": [],
        "correct_choice": [
            "R"
        ],
        "trial_duration": 8000,
        "response_ends_trial": true,
        "central_intensity": 0.9,
        "surround_intensity": 0.45,
        "central_radius": 18.5,
        "surround_radius": 37,
        "ratio": 2,
        "speed": 1124,
        "direction": 1,
        "field_spacing": 236,
        "background_color": "gray",
        "frame_rate": 10.013767209011265,
        "frame_rate_array": "[1,8,7,10,13,7,10,10,10,10,10,10,10,10,10,10,10,10,10,10,10,10,10,10,10,10,10,10,10,10,10,10,10,10,10,10,10,10,10,10,12,8,10,10,10,10,10,10,10,10,10,10,11,9,13,8,9,10,10,10,10,10,13,8,9,10,10,10,10,10,11,9,10,10,10,10,10,10,10,10,10,10,11,9,11,9,11,10,10,10,10,10,10,10,10,10,10,10,10,10,10,10,10,10,10,10,10,10,10,10,10,10,10,10,10,10,10,10,10,10,10,10,10,10,10,10,10,10,10,10,10,10,10,10,10,10,10,10,10,10,10,10,10,10,10,10,10,10,10,10,10,10,10,10,10,10,10,10,10,10,10,10,10,10,10,10,10,10,10,10,10,10,10,10,10,10,10,10,10,10,10,10,10,10,10,10,10,10,10,10,10,10,10,10,10,10,10,10,10,10,10,10,10,10,10,10,10,10,10,10,10,10,10,10,10,10,10,10,10,10,10,10,10,10,10,10,10,10,10,10,13,8,10,9,10,10,10,11,9,10,10,10,11,10,10,12,8,10,10,10,10,10,10,10,10,10,10,10,10,10,10,10,10,10,10,10,10,10,10,10,10,10,10,10,10,10,10,10,10,10,10,10,10,10,10,10,10,10,10,10,10,10,10,10,10,10,10,11,9,10,10,10,10,10,10,10,10,10,10,10,11,9,12,8,10,10,10,10,10,10,10,10,10,10,10,10,10,10,10,10,10,10,10,10,10,10,10,10,10,10,10,10,10,10,10,10,10,10,10,10,10,10,10,10,10,10,10,10,10,10,10,10,10,10,10,10,11,9,10,10,10,11,10,9,10,11,9,10,10,11,9,10,10,10,10,10,10,10,10,10,10,10,10,10,10,10,10,10,32,8,10,10,10,10,11,10,10,9,11,9,10,11,9,10,11,9,10,11,9,11,9,11,10,10,10,10,9,11,9,11,10,9,11,9,11,10,10,10,10,10,10,9,11,10,9,11,10,10,10,10,10,10,10,10,10,10,10,10,10,10,10,10,10,10,10,10,10,10,10,10,10,10,10,10,10,10,10,10,10,10,10,10,10,12,8,10,10,10,10,10,10,10,10,10,10,10,10,10,10,12,8,10,10,10,10,10,10,10,10,10,10,11,9,10,10,10,10,10,10,10,10,10,10,10,10,10,10,10,10,10,10,10,10,10,10,10,10,10,10,10,10,10,10,10,10,10,10,10,10,10,10,10,10,10,10,10,10,10,10,10,10,10,10,10,10,10,10,10,10,10,10,10,10,10,10,10,10,11,9,11,9,10,10,10,10,10,10,10,11,9,10,10,10,10,12,9,10,9,10,10,10,10,11,9,11,9,10,10,10,10,10,10,10,10,10,10,10,11,9,10,10,10,11,10,9,11,10,10,10,10,10,10,10,10,10,10,10,10,10,10,10,10,10,10,10,10,10,10,10,10,10,10,10,10,10,10,10,10,10,10,10,10,10,10,10,10,10,10,10,10,10,10,10,10,10,10,10,10,12,10,8,10,10,10,10,10,10,10,10,10,10,10,10,10,10,10,10,10,10,10,10,10,10,10,10,10,10,10,10,10,10,10,10,10,10,10,10,10,10,10,10,10,10,10,10,10,10,10,10,10,10,10,10,10,10,10,11,9,10,10,10,10,10,10,10,10,10,10,10,10,10,10,10,10,10,11,9,10,10,10,10,10,10,10,10,10,10,11,10,11,9,9,10,10,10,10,10,10,10,11,10,9,10,11,11,11,8,9,10,11,9,10,10,11,9,10,11,10,10]",
        "number_of_frames": 799,
        "canvas_width": 2560,
        "canvas_height": 1440,
        "blanking": false,
        "staircase": false,
        "trial_type": "disks",
        "trial_index": 1,
        "time_elapsed": 11093,
        "internal_node_id": "0.0-1.0-0.0"
    },
    {
        "animation_sequence": "[{\"stimulus\":{\"id\":\"red-dot\",\"x\":424,\"y\":424,\"width\":112,\"height\":112},\"time\":1001},{\"stimulus\":{\"id\":\"green-dot\",\"x\":424,\"y\":424,\"width\":112,\"height\":112},\"time\":2002}]",
        "responses": "[]",
        "trial_type": "animation",
        "trial_index": 2,
        "time_elapsed": 14103,
        "internal_node_id": "0.0-2.0"
    },
    {
        "rt": -1,
        "key_press": -1,
        "correct": false,
        "id": "disk-condition-1-1",
        "choices": [],
        "correct_choice": [
            "R"
        ],
        "trial_duration": 8000,
        "response_ends_trial": true,
        "central_intensity": 0.9,
        "surround_intensity": 0.45,
        "central_radius": 18.5,
        "surround_radius": 37,
        "ratio": 2,
        "speed": 1124,
        "direction": 1,
        "field_spacing": 236,
        "background_color": "gray",
        "frame_rate": 10.228900255754477,
        "frame_rate_array": "[1,8,5,14,16,7,3,10,10,10,11,9,10,10,10,10,10,10,10,10,10,10,10,10,10,10,10,10,10,10,10,10,10,10,10,10,11,9,11,9,10,10,10,10,10,10,10,10,10,10,10,10,10,10,10,10,10,11,10,9,10,11,9,11,10,10,10,10,10,10,10,10,10,10,10,10,10,10,10,10,10,10,10,10,10,10,10,10,10,10,10,10,10,10,10,10,10,10,10,10,10,10,10,11,9,10,10,10,10,10,10,10,12,8,10,10,10,10,10,10,10,10,10,10,10,10,10,10,10,10,10,10,10,10,10,10,10,10,10,10,10,10,10,10,10,10,10,10,10,12,8,10,10,10,10,10,10,10,10,11,10,9,10,10,10,10,10,10,11,9,11,9,10,10,10,10,10,10,10,10,10,10,10,10,10,10,10,10,10,10,10,10,10,10,10,10,10,10,10,10,10,11,9,10,10,10,10,10,10,10,10,10,10,10,10,10,10,10,10,10,10,10,11,9,10,10,10,10,10,10,10,11,9,10,10,10,10,11,9,10,11,10,11,9,10,10,10,10,10,11,10,9,10,10,10,10,10,10,10,10,10,10,10,10,10,10,10,10,10,10,10,10,10,10,10,10,10,10,10,10,11,9,10,10,10,10,10,10,10,10,10,10,10,10,10,10,10,10,10,10,10,10,10,10,10,10,10,10,10,10,10,10,10,10,10,10,10,10,10,10,10,10,10,10,10,10,10,10,10,11,9,10,10,10,11,9,10,10,10,10,10,10,10,10,10,10,10,10,10,10,10,10,10,10,10,10,10,10,10,11,9,11,9,10,10,10,10,10,10,10,10,10,10,10,10,196,4,10,10,25,5,10,10,11,9,11,9,10,10,10,10,10,10,11,9,10,10,10,11,9,10,11,10,9,10,10,11,9,11,10,10,10,11,9,10,10,10,10,11,9,10,10,10,10,10,10,10,10,10,10,10,10,10,10,10,10,10,10,10,10,10,10,10,10,10,10,10,10,10,10,10,10,10,10,10,10,10,10,10,10,10,10,10,10,10,10,10,10,10,10,10,10,10,10,10,10,10,10,10,10,10,10,10,10,10,10,10,10,10,10,10,10,10,10,10,10,10,10,10,10,10,10,10,10,10,10,10,10,12,8,10,10,10,10,11,9,10,10,10,10,11,10,10,9,10,10,10,11,9,10,12,9,11,8,10,10,11,9,10,10,10,10,10,10,10,10,10,10,10,10,10,10,10,10,10,10,10,10,10,10,10,10,10,10,10,10,10,11,9,10,10,10,10,11,9,10,10,11,10,10,9,10,11,10,10,9,11,9,11,9,11,10,10,10,10,10,10,10,10,10,10,10,10,10,10,10,10,10,10,10,10,10,10,10,10,10,10,10,10,10,10,10,10,10,10,10,10,10,10,10,10,10,10,10,10,10,10,10,10,10,10,10,10,10,10,10,10,10,10,10,10,10,10,10,10,10,10,10,10,10,10,10,10,10,10,10,10,10,10,10,10,10,10,10,10,10,10,10,10,10,10,10,10,10,10,10,10,10,10,10,10,10,10,10,10,10,10,10,10,11,9,10,10,10,10,10,10,10,10,10,10,12,10,8,10,10,10,10,10,10,10,10,10,10,10,10,10,10,10,10,10,10,11,10,9,10,11,9,10,10,10,10,10,10,10,10,10,10,10,10,10,10,10,11,9,10,11,9,11,9,10,10,10,10,10,10,11,10,9,10,10,11,9,11,10,10,11,9,10,10,10,10]",
        "number_of_frames": 782,
        "canvas_width": 2560,
        "canvas_height": 1440,
        "blanking": false,
        "staircase": false,
        "trial_type": "disks",
        "trial_index": 3,
        "time_elapsed": 22160,
        "internal_node_id": "0.0-3.0-0.0"
    },
    {
        "animation_sequence": "[{\"stimulus\":{\"id\":\"red-dot\",\"x\":424,\"y\":424,\"width\":112,\"height\":112},\"time\":1002},{\"stimulus\":{\"id\":\"green-dot\",\"x\":424,\"y\":424,\"width\":112,\"height\":112},\"time\":2002}]",
        "responses": "[]",
        "trial_type": "animation",
        "trial_index": 4,
        "time_elapsed": 25165,
        "internal_node_id": "0.0-4.0"
    },
    {
        "rt": -1,
        "key_press": -1,
        "correct": false,
        "id": "disk-condition-1-1",
        "choices": [],
        "correct_choice": [
            "R"
        ],
        "trial_duration": 8000,
        "response_ends_trial": true,
        "central_intensity": 0.9,
        "surround_intensity": 0.45,
        "central_radius": 18.5,
        "surround_radius": 37,
        "ratio": 2,
        "speed": 1124,
        "direction": 1,
        "field_spacing": 236,
        "background_color": "gray",
        "frame_rate": 10.043969849246231,
        "frame_rate_array": "[0,12,1,29,1,7,10,10,10,10,10,10,10,10,10,11,10,11,10,8,10,10,10,10,10,10,10,10,10,10,13,8,12,7,10,10,10,10,11,9,10,11,9,10,11,10,10,10,10,10,10,10,10,10,10,10,10,10,10,10,10,10,10,10,10,10,10,10,10,10,10,10,10,10,10,10,10,10,10,10,10,10,10,10,10,10,10,10,10,10,10,10,10,10,10,11,9,10,10,10,10,10,10,10,10,10,10,10,10,10,10,10,10,10,10,10,10,10,10,10,10,10,10,10,10,10,10,10,10,10,10,10,10,10,10,10,10,10,10,10,10,10,10,10,10,10,10,10,10,10,10,10,10,10,10,10,10,10,10,10,10,10,10,10,10,10,10,10,10,10,10,10,10,10,10,10,10,10,10,10,10,10,10,10,10,10,10,10,11,9,10,11,9,10,10,10,10,10,11,9,10,11,9,10,10,10,11,9,10,10,10,11,10,10,10,10,9,10,10,10,10,11,10,10,9,11,10,10,10,10,10,10,10,10,10,10,10,10,10,10,10,10,10,10,10,10,10,10,10,10,10,10,10,10,10,10,10,10,10,10,10,10,10,10,10,10,10,10,10,10,10,10,10,10,11,9,10,10,10,10,10,10,10,11,9,10,10,10,10,10,10,10,10,10,10,10,10,10,10,10,10,10,10,10,10,10,10,10,10,10,10,10,10,10,10,10,11,9,11,9,10,11,9,11,9,10,12,8,10,10,10,10,10,10,11,9,10,10,11,9,10,10,10,10,10,10,10,10,10,10,10,10,10,10,10,10,11,9,10,10,10,10,10,10,10,10,10,10,10,10,10,10,10,10,10,10,10,10,10,10,10,10,10,10,10,11,10,10,10,9,10,10,10,10,11,9,10,10,10,11,9,11,9,11,10,10,10,10,10,10,10,10,10,10,10,10,10,10,13,7,10,10,10,10,10,10,10,10,10,10,10,10,10,10,10,10,10,10,10,10,10,10,10,10,10,10,10,10,10,10,10,10,10,10,10,10,10,10,10,10,10,10,10,10,10,10,10,10,10,11,9,10,10,10,10,10,10,10,10,10,10,10,10,10,10,10,10,10,10,10,10,10,10,10,10,10,10,10,10,10,10,10,10,12,8,10,10,10,10,10,10,10,10,10,10,10,10,10,10,10,10,10,10,10,12,10,8,10,10,10,10,10,10,10,10,10,10,10,10,10,10,10,10,10,10,10,10,10,10,10,10,10,10,11,9,10,10,10,10,10,10,10,10,10,10,10,10,10,12,9,10,9,10,11,9,11,9,11,10,10,10,9,11,9,11,9,10,11,9,11,10,10,10,10,10,10,10,10,10,10,10,10,51,9,10,10,10,10,10,10,10,10,10,10,10,10,10,10,10,10,10,10,10,10,10,10,10,10,10,10,10,10,10,10,10,10,10,10,10,10,10,10,12,8,10,10,10,10,10,10,10,10,10,10,10,10,10,10,10,10,10,10,10,10,10,10,10,10,10,10,10,10,10,10,10,10,10,10,10,10,10,10,10,10,10,10,10,10,10,10,10,10,10,10,10,10,10,10,10,10,10,10,10,10,10,10,10,10,10,10,10,10,10,10,10,11,9,10,10,10,10,10,10,10,10,10,10,10,10,10,10,10,10,11,9,10,11,9,11,9,11,9,10,10,11,10,9,10,10,11,10,10,9,11,10,10,10,11,9,11,10,8,11,10,10,9,11,10,10,10,10,10,10,10,10,10,10,10,10,10,10,10,10,10,10,10,10,10,10,10,10,10,10,10,10,10]",
        "number_of_frames": 796,
        "canvas_width": 2560,
        "canvas_height": 1440,
        "blanking": false,
        "staircase": false,
        "trial_type": "disks",
        "trial_index": 5,
        "time_elapsed": 33229,
        "internal_node_id": "0.0-5.0-0.0"
    },
    {
        "animation_sequence": "[{\"stimulus\":{\"id\":\"red-dot\",\"x\":424,\"y\":424,\"width\":112,\"height\":112},\"time\":1001},{\"stimulus\":{\"id\":\"green-dot\",\"x\":424,\"y\":424,\"width\":112,\"height\":112},\"time\":2002}]",
        "responses": "[]",
        "trial_type": "animation",
        "trial_index": 6,
        "time_elapsed": 36232,
        "internal_node_id": "0.0-6.0"
    },
    {
        "rt": -1,
        "key_press": -1,
        "correct": false,
        "id": "disk-condition-1-1",
        "choices": [],
        "correct_choice": [
            "R"
        ],
        "trial_duration": 8000,
        "response_ends_trial": true,
        "central_intensity": 0.9,
        "surround_intensity": 0.45,
        "central_radius": 18.5,
        "surround_radius": 37,
        "ratio": 2,
        "speed": 1124,
        "direction": 1,
        "field_spacing": 236,
        "background_color": "gray",
        "frame_rate": 10.104930467762326,
        "frame_rate_array": "[0,8,1,16,16,7,10,10,11,10,9,10,10,10,10,10,11,9,11,9,10,10,11,10,10,10,10,10,10,10,10,10,10,10,10,11,10,10,9,10,10,10,10,10,10,10,10,10,10,10,10,10,10,10,10,10,10,10,10,10,10,10,10,10,10,10,10,10,10,10,10,10,10,10,10,10,10,10,10,10,10,10,10,10,10,10,10,10,10,10,10,10,10,10,10,10,10,10,10,10,10,10,10,10,10,10,10,10,10,10,10,10,10,10,10,10,10,10,10,10,10,10,10,12,8,10,10,10,10,10,10,10,10,10,10,10,10,10,11,9,11,9,10,10,10,11,9,10,10,10,10,10,10,10,10,10,10,10,10,10,10,10,10,10,10,10,10,10,10,10,10,10,10,10,10,10,10,10,10,10,10,10,11,9,10,11,9,11,10,10,10,9,10,10,10,10,11,9,11,9,11,9,11,10,10,9,10,11,10,9,11,10,10,10,10,10,10,10,10,10,10,10,10,10,10,11,9,10,10,10,11,10,9,10,10,10,11,9,10,10,10,10,10,10,10,10,10,10,10,10,10,10,11,9,10,10,10,10,10,10,10,10,10,10,10,10,10,10,10,10,10,10,10,10,10,10,10,10,10,10,11,9,10,10,10,10,10,10,10,10,10,10,10,10,10,10,10,11,9,10,11,9,10,10,10,10,10,10,10,10,10,10,10,10,10,10,10,10,10,10,10,11,9,11,10,9,10,10,10,11,9,10,10,11,10,9,11,10,9,11,10,10,9,13,7,10,12,8,10,10,10,10,10,10,10,10,10,11,9,10,10,11,10,10,9,10,11,9,10,10,10,11,9,10,10,10,10,10,10,10,10,10,11,10,10,9,11,10,10,9,11,12,9,10,9,10,10,10,11,9,10,10,10,10,10,10,10,10,10,10,10,10,10,10,10,10,10,10,10,10,10,10,10,10,10,10,10,10,10,10,10,10,10,10,10,10,10,10,10,10,10,10,10,10,10,10,10,10,10,10,10,10,10,10,10,10,10,10,10,10,10,10,10,10,10,10,10,10,12,8,10,10,10,10,10,10,10,10,10,10,10,10,10,10,10,10,10,10,10,10,10,10,10,10,10,10,10,10,100,10,10,10,10,10,10,10,10,10,10,10,10,13,8,9,10,10,10,10,10,10,10,10,10,10,10,10,10,10,10,10,10,12,8,11,9,10,10,10,10,10,11,9,10,10,10,10,10,10,10,10,11,9,11,10,10,9,10,11,9,10,10,11,9,10,11,10,10,10,10,10,10,10,10,10,10,10,10,10,10,10,10,10,10,10,10,10,10,10,10,10,10,10,10,10,10,10,10,11,9,10,10,10,10,10,10,10,10,10,10,10,10,12,12,10,6,10,10,10,10,10,10,10,10,10,10,10,10,10,10,10,10,10,10,10,10,10,10,10,10,10,10,10,10,10,10,10,10,10,10,10,10,10,10,10,10,11,9,10,10,10,10,10,10,10,10,10,10,10,10,10,10,10,10,10,10,10,10,10,10,10,10,10,10,10,10,10,10,11,10,11,8,10,12,9,9,10,17,3,11,9,10,10,10,10,10,10,10,11,10,9,10,10,10,10,10,11,9,11,9,10,10,10,10,10,10,10,10,10,10,10,10,10,10,10,10,11,10,10,9,10,10,11,9,10,10,11,10,10,10,10,10,10,10,10,10,10,10,10,10,10,10,10,10,10,11,10,9,10,10,10,10,10,10,10,10,10,10,10,10,10,10,10,10,10,10,10,10,10,10,11,9]",
        "number_of_frames": 791,
        "canvas_width": 2560,
        "canvas_height": 1440,
        "blanking": false,
        "staircase": false,
        "trial_type": "disks",
        "trial_index": 7,
        "time_elapsed": 44277,
        "internal_node_id": "0.0-7.0-0.0"
    },
    {
        "animation_sequence": "[{\"stimulus\":{\"id\":\"red-dot\",\"x\":424,\"y\":424,\"width\":112,\"height\":112},\"time\":1001},{\"stimulus\":{\"id\":\"green-dot\",\"x\":424,\"y\":424,\"width\":112,\"height\":112},\"time\":2002}]",
        "responses": "[]",
        "trial_type": "animation",
        "trial_index": 8,
        "time_elapsed": 47281,
        "internal_node_id": "0.0-8.0"
    },
    {
        "rt": -1,
        "key_press": -1,
        "correct": false,
        "id": "disk-condition-1-1",
        "choices": [],
        "correct_choice": [
            "R"
        ],
        "trial_duration": 8000,
        "response_ends_trial": true,
        "central_intensity": 0.9,
        "surround_intensity": 0.45,
        "central_radius": 18.5,
        "surround_radius": 37,
        "ratio": 2,
        "speed": 1124,
        "direction": 1,
        "field_spacing": 236,
        "background_color": "gray",
        "frame_rate": 9.991260923845193,
        "frame_rate_array": "[1,11,2,14,26,1,3,10,10,10,10,10,10,10,10,10,10,11,10,9,10,10,10,10,10,10,10,10,10,10,10,10,10,10,10,10,10,10,10,10,10,10,11,9,10,10,10,10,10,10,10,10,10,10,10,10,10,10,10,10,10,10,10,10,10,10,10,10,10,10,10,10,10,10,10,10,10,10,10,10,10,10,10,10,10,10,10,10,10,10,10,10,10,10,10,10,11,10,10,10,10,9,10,10,10,10,11,10,9,10,10,10,11,9,11,10,10,10,10,10,10,10,10,10,10,10,10,10,10,10,10,10,10,10,10,10,10,10,10,10,10,10,11,9,11,9,10,10,10,10,10,10,10,10,10,10,10,10,10,10,10,10,10,11,9,10,10,10,10,10,10,10,10,10,10,10,10,10,10,10,10,10,10,10,10,10,10,10,10,10,10,10,10,10,10,11,9,12,8,10,10,10,10,10,10,10,10,10,10,10,10,10,10,10,10,11,10,9,10,10,10,10,10,10,10,10,10,10,10,10,10,10,10,10,10,10,10,10,10,10,10,10,10,11,10,10,10,10,10,10,10,10,9,11,10,10,10,10,10,10,10,10,10,10,10,10,10,10,10,10,10,10,10,10,10,10,10,10,10,10,10,10,10,10,10,10,10,10,10,10,10,10,10,10,10,10,10,10,10,10,10,10,10,10,10,10,10,10,10,10,10,10,10,10,10,11,9,10,11,9,10,10,10,12,8,10,10,10,10,10,10,10,10,10,10,10,10,10,10,10,10,10,10,10,10,10,10,10,10,10,10,10,10,10,10,10,10,10,10,10,10,10,10,10,10,10,10,10,10,10,10,10,10,10,10,10,10,10,10,10,10,10,10,10,10,10,10,10,10,11,10,9,10,10,10,10,10,10,10,10,10,10,10,10,10,10,10,10,10,10,13,7,10,10,10,11,10,9,11,9,10,10,10,10,10,10,10,10,10,10,10,10,10,10,10,10,10,10,10,11,9,10,10,10,10,10,10,10,10,10,10,11,9,10,10,11,9,11,9,11,9,10,10,10,10,10,11,9,10,10,10,10,11,9,11,10,10,10,11,9,11,9,10,10,10,10,10,10,10,10,10,10,10,11,10,10,9,10,10,10,10,11,9,10,10,10,10,10,10,10,10,10,10,10,10,10,10,10,10,10,10,10,10,10,10,10,10,10,10,10,10,10,10,10,10,10,10,10,10,10,10,10,10,10,10,10,10,10,10,10,10,10,10,10,10,10,10,10,10,10,10,10,10,10,10,10,10,10,11,9,10,10,10,10,10,10,10,10,10,10,10,10,10,10,10,10,10,10,10,10,10,10,10,11,9,12,8,10,10,10,10,11,10,9,10,10,10,10,10,10,10,10,11,9,10,10,10,10,10,10,10,10,10,10,10,10,11,9,10,10,10,10,11,9,11,9,10,11,9,11,9,10,10,10,10,11,9,10,10,10,10,11,9,10,10,11,9,11,10,10,10,10,10,10,10,10,10,10,10,10,10,10,10,10,10,10,10,10,10,10,10,10,10,10,10,10,10,10,10,10,10,10,10,10,10,10,10,10,11,9,11,9,10,10,10,10,10,10,10,10,10,10,10,10,10,10,10,10,10,10,10,10,10,10,10,10,10,10,10,10,10,10,10,10,10,10,10,10,10,10,10,10,10,10,10,10,10,10,10,10,10,10,10,10,10,10,10,10,10,10,12,8,12,8,10,10,10,10,10,10,10,10,10,10,10,10,10,10,10,10,10,12,8,10,10,10,10,10,10,10,10,10,12,10,8,11,9,10,10,10,11]",
        "number_of_frames": 801,
        "canvas_width": 2560,
        "canvas_height": 1440,
        "blanking": false,
        "staircase": false,
        "trial_type": "disks",
        "trial_index": 9,
        "time_elapsed": 55325,
        "internal_node_id": "0.0-9.0-0.0"
    },
    {
        "animation_sequence": "[{\"stimulus\":{\"id\":\"red-dot\",\"x\":424,\"y\":424,\"width\":112,\"height\":112},\"time\":1002},{\"stimulus\":{\"id\":\"green-dot\",\"x\":424,\"y\":424,\"width\":112,\"height\":112},\"time\":2002}]",
        "responses": "[]",
        "trial_type": "animation",
        "trial_index": 10,
        "time_elapsed": 58329,
        "internal_node_id": "0.0-10.0"
    },
    {
        "rt": -1,
        "key_press": -1,
        "correct": false,
        "id": "disk-condition-1-1",
        "choices": [],
        "correct_choice": [
            "R"
        ],
        "trial_duration": 8000,
        "response_ends_trial": true,
        "central_intensity": 0.9,
        "surround_intensity": 0.45,
        "central_radius": 18.5,
        "surround_radius": 37,
        "ratio": 2,
        "speed": 1124,
        "direction": 1,
        "field_spacing": 236,
        "background_color": "gray",
        "frame_rate": 10.027568922305765,
        "frame_rate_array": "[0,12,5,29,0,1,10,10,12,8,10,10,10,10,10,10,10,10,10,10,11,9,10,10,10,10,10,10,10,10,10,10,10,12,8,11,9,10,10,10,10,10,10,10,10,10,10,10,10,10,10,10,11,9,10,11,9,10,10,10,10,11,9,10,10,10,10,11,9,10,10,11,10,10,9,10,10,11,9,11,9,10,10,10,10,10,10,10,10,10,11,10,10,10,10,10,10,10,10,11,9,10,10,10,10,10,10,10,10,10,10,10,10,10,10,10,10,10,10,10,10,10,10,10,10,10,12,8,10,10,10,10,10,11,9,10,10,10,10,10,10,10,10,10,10,10,10,10,10,10,10,10,10,10,10,10,10,10,10,10,10,10,10,10,10,10,10,10,10,10,10,10,10,10,10,10,10,10,10,10,10,10,11,10,11,8,10,10,10,10,10,10,10,10,10,10,10,10,11,9,10,10,10,10,10,10,10,10,10,10,10,10,10,10,10,10,45,5,10,10,10,10,12,8,10,10,10,10,10,10,10,10,10,10,10,10,10,10,10,10,11,10,10,10,10,10,10,10,10,10,10,10,10,10,10,10,10,10,10,10,10,10,10,10,10,10,10,10,10,10,10,10,10,10,10,10,10,10,10,10,10,10,10,10,10,10,10,10,10,10,10,10,10,10,10,10,11,9,10,12,8,10,10,10,10,10,10,10,10,10,10,10,10,10,10,10,10,10,10,10,10,10,10,10,10,10,10,10,10,10,10,10,10,10,10,10,10,10,10,10,10,10,10,10,10,10,10,10,10,10,10,10,10,10,10,10,10,10,11,10,9,10,10,10,10,10,10,10,10,10,10,10,10,10,10,10,10,10,10,10,10,10,10,10,10,10,10,11,9,11,9,10,10,10,10,10,11,9,11,9,10,10,10,10,10,10,10,10,10,10,10,10,10,11,9,10,10,10,10,10,10,10,10,10,10,10,10,11,9,10,10,10,10,10,10,10,11,10,9,10,10,10,10,11,9,10,10,11,9,10,10,10,10,10,11,10,10,10,10,10,10,10,10,10,10,10,10,10,10,10,11,9,10,10,10,10,10,10,10,12,8,12,8,10,10,10,10,10,10,10,10,10,10,10,10,10,10,10,10,10,10,10,10,10,10,10,10,10,10,10,10,10,10,10,10,10,10,10,10,10,10,10,10,10,10,10,10,10,10,10,10,10,10,10,10,10,10,10,10,10,10,10,10,10,10,10,10,10,10,11,9,10,10,10,10,10,10,10,10,11,9,10,10,10,10,10,10,10,10,10,10,10,11,11,9,9,10,10,10,10,10,10,10,10,10,10,10,10,10,10,10,10,10,10,10,10,10,11,9,10,10,10,10,10,10,10,10,10,11,9,10,10,10,10,10,10,10,10,10,11,10,9,10,10,10,11,10,10,9,11,10,10,9,11,10,10,10,10,10,10,11,9,11,9,10,14,6,10,10,10,10,10,10,10,10,10,10,10,10,10,10,10,10,10,10,10,10,10,10,10,10,10,10,10,10,10,10,10,10,10,10,10,10,10,10,10,10,10,10,10,10,10,10,10,10,10,10,10,10,10,10,10,10,10,10,10,10,10,10,10,10,10,10,10,10,10,10,10,10,11,9,16,4,10,10,10,10,10,10,10,10,10,10,10,10,10,12,10,8,10,10,10,10,10,10,10,10,10,10,10,10,10,10,10,10,10,10,10,11,9,10,10,10,10,11,9,10,10,10,10,10,10,10,10,10,10,10,10,10,10,10,10,10,10,10,10,10,10,10,10,10,11,9,10,10,12,9,10]",
        "number_of_frames": 798,
        "canvas_width": 2560,
        "canvas_height": 1440,
        "blanking": false,
        "staircase": false,
        "trial_type": "disks",
        "trial_index": 11,
        "time_elapsed": 66372,
        "internal_node_id": "0.0-11.0-0.0"
    },
    {
        "animation_sequence": "[{\"stimulus\":{\"id\":\"red-dot\",\"x\":424,\"y\":424,\"width\":112,\"height\":112},\"time\":1001},{\"stimulus\":{\"id\":\"green-dot\",\"x\":424,\"y\":424,\"width\":112,\"height\":112},\"time\":2001}]",
        "responses": "[]",
        "trial_type": "animation",
        "trial_index": 12,
        "time_elapsed": 69376,
        "internal_node_id": "0.0-12.0"
    },
    {
        "rt": -1,
        "key_press": -1,
        "correct": false,
        "id": "disk-condition-1-1",
        "choices": [],
        "correct_choice": [
            "R"
        ],
        "trial_duration": 8000,
        "response_ends_trial": true,
        "central_intensity": 0.9,
        "surround_intensity": 0.45,
        "central_radius": 18.5,
        "surround_radius": 37,
        "ratio": 2,
        "speed": 1124,
        "direction": 1,
        "field_spacing": 236,
        "background_color": "gray",
        "frame_rate": 9.99625,
        "frame_rate_array": "[0,9,3,15,17,8,10,10,11,9,10,10,10,10,10,10,10,10,10,10,10,10,10,10,10,10,10,10,10,10,10,10,10,10,10,10,10,10,10,10,10,10,10,10,11,9,10,11,10,10,10,9,10,10,10,10,11,9,10,10,10,11,9,11,9,10,10,11,9,11,9,11,9,11,10,10,10,10,10,10,10,10,10,10,10,10,10,10,10,10,10,10,10,10,10,10,10,10,10,10,10,10,10,10,10,10,10,10,10,10,10,10,10,10,10,10,10,10,10,11,9,10,10,10,10,10,10,10,10,10,10,10,10,10,10,10,10,10,10,10,10,10,10,10,10,10,10,10,10,10,10,10,10,10,10,10,10,10,10,10,10,10,11,13,6,10,10,10,10,10,10,10,10,10,10,10,10,10,10,10,10,10,10,10,10,10,10,10,10,11,10,9,10,10,10,10,10,10,10,10,10,10,10,10,10,11,9,10,10,11,10,11,10,8,11,9,10,11,11,8,10,10,10,11,10,9,10,10,10,10,10,10,10,10,10,10,10,11,9,11,9,11,10,10,10,10,10,10,10,10,10,10,10,10,10,10,10,10,10,10,10,10,10,10,10,10,10,10,10,10,10,10,10,10,10,11,9,10,10,10,10,10,10,10,10,10,10,10,10,10,10,10,10,10,10,10,12,8,10,10,10,10,10,11,10,9,10,10,10,10,10,10,10,10,10,10,10,10,10,10,10,10,10,10,11,9,10,10,10,10,10,10,10,10,10,10,10,10,10,10,10,10,10,10,10,10,10,10,10,10,10,10,10,10,10,10,10,10,10,10,10,10,10,10,10,10,10,10,10,10,10,10,10,10,10,12,8,10,10,10,10,11,9,10,11,9,10,10,10,10,10,10,10,10,10,11,9,10,10,11,9,10,10,10,10,10,10,10,10,11,9,10,10,10,10,11,9,10,10,10,10,10,10,10,10,10,11,10,9,10,10,10,11,10,9,10,11,10,10,10,10,10,10,10,10,10,10,10,10,10,10,10,10,10,10,10,10,10,10,10,10,10,11,10,9,11,9,10,10,10,10,10,10,10,10,10,10,10,10,10,10,10,10,10,10,10,10,10,10,10,10,10,10,10,10,10,10,10,10,10,10,10,10,10,10,10,10,10,10,10,10,10,10,10,10,10,10,10,10,10,10,10,10,10,10,10,10,10,10,10,10,10,10,10,10,10,10,10,10,10,10,10,10,10,10,10,10,10,10,10,10,10,10,10,11,11,8,10,10,10,10,10,10,10,10,10,11,9,10,10,10,10,10,11,9,10,10,10,10,10,10,10,10,10,11,9,10,10,10,10,10,10,10,10,10,10,10,11,9,10,10,10,10,11,10,9,10,10,10,10,11,9,10,11,10,10,9,10,10,10,11,10,10,10,10,10,10,10,10,10,10,11,11,10,8,10,10,10,10,10,10,10,10,10,11,10,11,8,10,10,10,10,10,10,10,10,10,11,9,10,10,10,10,10,10,10,10,10,10,10,10,10,10,10,10,10,10,10,10,10,10,10,10,10,10,10,10,10,10,10,10,10,10,10,10,10,10,10,10,10,11,9,10,10,10,10,10,10,10,10,10,10,10,10,10,10,10,10,10,10,10,10,10,10,10,10,10,10,10,11,9,12,8,10,10,10,10,10,10,10,10,10,10,10,10,10,10,10,10,10,10,11,9,11,9,10,10,10,10,11,9,10,10,10,10,10,12,8,10,10,10,10,10,10,10,10,10,11,9,10,10,10,10,10,10,10,10,10,10,10,10,10,10,11,10,9,11,10,10,10]",
        "number_of_frames": 800,
        "canvas_width": 2560,
        "canvas_height": 1440,
        "blanking": false,
        "staircase": false,
        "trial_type": "disks",
        "trial_index": 13,
        "time_elapsed": 77433,
        "internal_node_id": "0.0-13.0-0.0"
    }
]