[
    {
        "animation_sequence": "[{\"stimulus\":{\"id\":\"red-dot\",\"x\":424,\"y\":424,\"width\":112,\"height\":112},\"time\":1002},{\"stimulus\":{\"id\":\"green-dot\",\"x\":424,\"y\":424,\"width\":112,\"height\":112},\"time\":2002}]",
        "responses": "[]",
        "trial_type": "animation",
        "trial_index": 0,
        "time_elapsed": 3004,
        "internal_node_id": "0.0-0.0"
    },
    {
        "rt": -1,
        "key_press": -1,
        "correct": false,
        "id": "disk-condition-11-1",
        "choices": [],
        "correct_choice": [
            "R"
        ],
        "trial_duration": 8000,
        "response_ends_trial": true,
        "central_intensity": 0.9,
        "surround_intensity": 0.45,
        "central_radius": 2,
        "surround_radius": 4,
        "ratio": 2,
        "speed": 1124,
        "direction": 1,
        "field_spacing": 96,
        "background_color": "gray",
        "frame_rate": 11.93731343283582,
        "frame_rate_array": "[1,13,2,30,1,2,12,12,12,12,12,12,12,12,12,12,12,11,12,12,12,12,12,12,12,12,12,12,12,12,12,12,12,12,12,12,12,12,12,12,12,12,12,12,12,12,11,12,12,12,12,12,12,12,12,12,12,12,12,12,12,12,12,12,12,12,12,12,12,12,12,12,12,12,12,12,12,12,11,12,12,13,11,12,12,12,13,11,12,14,10,12,12,12,12,12,12,12,12,12,12,12,12,12,12,12,12,12,12,12,11,12,13,11,12,12,12,12,12,12,12,12,12,12,12,12,12,12,12,12,12,12,12,12,12,12,12,12,12,12,11,12,12,13,12,11,12,12,12,13,12,12,11,12,12,12,12,12,12,12,12,12,12,12,12,12,12,12,12,12,12,12,13,10,12,12,12,12,12,12,12,12,12,12,12,12,12,12,12,12,12,12,11,12,12,12,12,12,12,12,12,12,12,12,12,12,12,12,12,12,12,12,12,12,12,12,12,12,12,12,11,12,12,12,12,12,13,12,11,12,12,12,12,12,12,12,12,12,15,9,12,12,12,11,12,12,12,12,12,12,12,12,12,12,12,12,11,13,11,12,12,13,12,12,12,12,12,11,13,12,11,13,12,11,12,12,12,12,12,13,11,13,11,12,12,12,12,12,12,13,11,12,12,12,12,12,12,12,12,12,12,12,12,12,12,12,12,11,12,12,13,11,12,12,13,11,12,12,12,12,12,12,13,11,12,12,12,12,12,12,12,12,12,12,12,12,12,12,11,12,13,11,12,12,12,12,13,11,12,12,12,12,12,12,12,12,12,12,12,12,12,12,12,12,12,12,12,12,12,12,11,12,12,12,12,12,11,12,12,12,12,12,13,11,12,12,13,12,11,13,12,13,10,12,12,12,12,12,12,12,12,13,11,13,12,12,10,12,12,12,13,11,12,12,12,12,12,12,12,12,12,12,11,12,12,12,12,12,12,12,12,13,11,12,12,12,12,12,12,12,12,12,12,12,12,12,12,12,12,12,12,12,12,12,12,11,12,12,12,17,12,12,12,12,12,12,12,12,12,12,12,12,12,12,12,12,12,12,12,11,12,12,13,11,12,12,12,12,12,12,12,12,12,12,12,12,12,12,12,12,12,12,12,12,12,12,12,12,12,12,13,11,11,13,11,12,13,13,10,12,12,12,12,12,12,12,12,12,12,12,12,12,12,12,12,12,12,12,12,12,12,12,12,12,11,13,11,14,11,12,11,12,12,12,12,12,12,12,12,12,12,12,12,12,12,12,12,12,12,12,12,12,12,12,11,12,12,12,13,11,12,12,13,11,12,12,12,12,12,12,12,12,12,12,12,12,12,14,10,12,12,12,12,12,12,12,11,13,12,11,12,12,12,12,12,12,12,12,12,12,12,12,12,12,12,12,12,12,12,12,12,12,12,12,12,12,12,11,12,12,12,12,12,12,12,12,12,12,12,12,12,12,12,12,12,12,12,12,12,12,12,12,12,12,12,12,12,11,13,11]",
        "number_of_frames": 670,
        "canvas_width": 2560,
        "canvas_height": 1440,
        "blanking": false,
        "staircase": false,
        "trial_type": "disks",
        "trial_index": 1,
        "time_elapsed": 11071,
        "internal_node_id": "0.0-1.0-0.0"
    },
    {
        "animation_sequence": "[{\"stimulus\":{\"id\":\"red-dot\",\"x\":424,\"y\":424,\"width\":112,\"height\":112},\"time\":1001},{\"stimulus\":{\"id\":\"green-dot\",\"x\":424,\"y\":424,\"width\":112,\"height\":112},\"time\":2003}]",
        "responses": "[]",
        "trial_type": "animation",
        "trial_index": 2,
        "time_elapsed": 14074,
        "internal_node_id": "0.0-2.0"
    },
    {
        "rt": -1,
        "key_press": -1,
        "correct": false,
        "id": "disk-condition-11-1",
        "choices": [],
        "correct_choice": [
            "R"
        ],
        "trial_duration": 8000,
        "response_ends_trial": true,
        "central_intensity": 0.9,
        "surround_intensity": 0.45,
        "central_radius": 2,
        "surround_radius": 4,
        "ratio": 2,
        "speed": 1124,
        "direction": 1,
        "field_spacing": 96,
        "background_color": "gray",
        "frame_rate": 16.57676348547718,
        "frame_rate_array": "[0,15,1,9,12,12,12,15,15,16,17,17,17,16,16,18,15,18,16,16,17,17,17,16,17,17,16,18,16,17,16,17,18,15,16,18,16,17,16,17,17,16,17,16,17,18,16,16,17,17,17,16,17,17,16,18,15,17,16,17,19,14,17,17,16,17,17,17,16,17,17,16,17,17,16,17,17,17,17,15,17,16,17,19,15,16,17,17,16,17,17,17,17,16,17,16,17,17,17,16,17,17,15,17,17,18,17,15,17,16,18,17,15,17,17,17,16,17,17,16,17,17,17,15,18,16,16,17,17,18,15,17,17,16,18,16,17,17,16,18,15,17,17,17,16,17,17,16,16,18,16,17,17,16,16,17,17,18,15,17,17,16,18,16,17,16,17,18,15,17,17,15,17,18,16,17,16,18,16,16,18,16,16,17,19,16,15,17,16,17,19,14,17,18,15,17,17,16,18,16,16,18,15,18,16,16,17,17,18,15,17,17,16,18,16,17,16,17,18,15,16,17,16,74,6,12,11,13,11,13,11,16,17,17,17,17,16,17,16,17,18,14,18,17,16,19,15,16,17,17,19,13,17,21,12,17,18,15,19,15,17,17,17,15,18,16,17,16,18,17,16,17,15,17,17,17,18,15,17,17,16,18,16,17,16,17,16,16,18,16,17,18,16,17,15,17,20,13,20,14,17,17,16,16,17,17,17,16,17,17,16,17,17,16,18,15,18,15,17,19,14,17,17,17,17,17,16,17,16,17,17,16,17,17,16,16,18,17,16,16,18,16,18,15,16,19,16,18,14,17,18,16,17,16,16,18,16,17,16,17,18,16,16,17,16,18,16,17,15,17,19,14,17,17,16,19,15,17,17,16,17,17,16,17,17,16,17,17,17,16,17,17,16,18,16,16,17,16,19,14,18,16,17,16,17,17,16,17,17,17,16,17,17,16,17,17,17,15,17,17,16,19,17,14,17,17,18,15,17,17,16,17,17,17,16,17,17,16,17,17,17,15,17,17,18,15,17,17,16,19,15,16,17,17,18,15,17,17,16,18,16,16,17,17,16,16,17,18,15,17,17,17,18,15,17,17,19,15,16,16,17,16]",
        "number_of_frames": 482,
        "canvas_width": 2560,
        "canvas_height": 1440,
        "blanking": false,
        "staircase": false,
        "trial_type": "disks",
        "trial_index": 3,
        "time_elapsed": 22144,
        "internal_node_id": "0.0-3.0-0.0"
    },
    {
        "animation_sequence": "[{\"stimulus\":{\"id\":\"red-dot\",\"x\":424,\"y\":424,\"width\":112,\"height\":112},\"time\":1003},{\"stimulus\":{\"id\":\"green-dot\",\"x\":424,\"y\":424,\"width\":112,\"height\":112},\"time\":2002}]",
        "responses": "[]",
        "trial_type": "animation",
        "trial_index": 4,
        "time_elapsed": 25147,
        "internal_node_id": "0.0-4.0"
    },
    {
        "rt": -1,
        "key_press": -1,
        "correct": false,
        "id": "disk-condition-11-1",
        "choices": [],
        "correct_choice": [
            "R"
        ],
        "trial_duration": 8000,
        "response_ends_trial": true,
        "central_intensity": 0.9,
        "surround_intensity": 0.45,
        "central_radius": 2,
        "surround_radius": 4,
        "ratio": 2,
        "speed": 1124,
        "direction": 1,
        "field_spacing": 96,
        "background_color": "gray",
        "frame_rate": 17.6401766004415,
        "frame_rate_array": "[0,14,2,16,16,5,11,28,16,16,17,18,15,17,17,15,17,17,17,17,16,17,16,17,17,17,16,17,17,19,14,17,16,17,18,15,17,17,16,19,15,16,17,17,16,17,16,18,16,17,16,16,19,15,17,16,18,17,15,17,17,17,16,17,17,16,17,18,15,17,17,16,19,17,14,17,17,16,17,17,17,16,17,16,17,18,15,17,18,15,17,17,17,16,17,17,16,19,15,16,17,17,15,19,15,17,17,17,15,18,16,17,16,17,17,16,17,17,16,17,17,17,16,17,17,16,18,16,16,17,16,19,14,18,16,17,16,17,17,17,16,17,16,17,17,17,16,17,17,17,15,18,17,16,18,15,16,18,16,19,14,17,17,16,17,18,16,17,16,18,15,17,17,17,18,15,16,17,16,19,15,17,18,15,18,16,16,17,16,17,17,17,16,16,17,17,16,18,16,16,17,17,17,16,17,17,16,18,15,18,15,18,17,16,16,18,15,19,14,18,17,16,19,15,15,20,15,17,15,17,18,15,17,17,17,18,16,16,16,531,6,12,12,11,12,17,19,14,17,19,14,17,17,16,18,16,17,16,17,16,17,17,16,17,20,13,17,18,15,16,18,16,18,16,16,17,17,15,18,16,17,16,17,17,16,17,17,17,16,17,17,16,17,17,17,17,16,24,9,16,19,15,17,16,17,16,17,17,17,16,17,17,16,17,17,16,17,17,18,15,16,16,17,19,36,12,12,12,12,14,17,20,14,16,17,17,16,17,18,15,17,17,16,17,17,16,17,17,19,14,17,17,16,17,16,17,18,16,16,17,17,18,15,17,16,17,17,16,17,17,16,16,18,16,18,15,17,16,17,18,16,16,17,17,17,16,17,19,14,20,15,15,17,17,16,17,17,16,16,17,17,16,18,16,16,17,17,18,15,17,17,17,18,15,16,17,17,17,16,17,16,17,18,15,17,17,17,18,15,17,18,15,19,14,17,17,16,17,16,17,18,15,17,16,17,19,14,17,17,17,16,17,17]",
        "number_of_frames": 453,
        "canvas_width": 2560,
        "canvas_height": 1440,
        "blanking": false,
        "staircase": false,
        "trial_type": "disks",
        "trial_index": 5,
        "time_elapsed": 33227,
        "internal_node_id": "0.0-5.0-0.0"
    },
    {
        "animation_sequence": "[{\"stimulus\":{\"id\":\"red-dot\",\"x\":424,\"y\":424,\"width\":112,\"height\":112},\"time\":1001},{\"stimulus\":{\"id\":\"green-dot\",\"x\":424,\"y\":424,\"width\":112,\"height\":112},\"time\":2002}]",
        "responses": "[]",
        "trial_type": "animation",
        "trial_index": 6,
        "time_elapsed": 36231,
        "internal_node_id": "0.0-6.0"
    },
    {
        "rt": -1,
        "key_press": -1,
        "correct": false,
        "id": "disk-condition-11-1",
        "choices": [],
        "correct_choice": [
            "R"
        ],
        "trial_duration": 8000,
        "response_ends_trial": true,
        "central_intensity": 0.9,
        "surround_intensity": 0.45,
        "central_radius": 2,
        "surround_radius": 4,
        "ratio": 2,
        "speed": 1124,
        "direction": 1,
        "field_spacing": 96,
        "background_color": "gray",
        "frame_rate": 16.54865424430642,
        "frame_rate_array": "[0,10,10,22,1,12,12,13,15,16,16,17,16,17,17,17,16,17,17,16,18,16,16,17,16,19,14,17,17,17,16,17,17,16,17,17,17,16,17,17,15,18,17,17,15,17,17,16,19,15,17,16,17,18,15,17,17,16,17,17,19,14,17,17,16,17,17,17,16,16,17,18,15,17,17,16,18,16,16,18,17,17,15,17,16,17,16,17,16,18,16,17,16,17,18,16,16,17,17,17,16,17,16,17,18,16,16,17,16,17,16,17,17,16,17,17,16,18,16,17,16,17,17,16,17,17,16,18,16,16,18,16,18,16,15,19,15,19,14,17,17,16,19,15,16,29,12,13,13,17,16,17,19,14,17,18,16,16,17,17,17,16,16,17,17,18,15,17,17,16,18,16,15,18,16,19,14,17,18,15,17,17,16,18,16,17,17,16,18,15,17,18,16,17,16,17,16,17,18,15,16,18,16,16,17,17,17,16,17,17,16,17,17,16,17,17,17,16,16,18,16,18,15,17,16,17,20,17,13,17,16,17,17,17,16,17,19,14,18,16,16,17,17,17,17,16,16,19,15,18,14,17,17,17,19,14,17,17,16,17,16,17,17,17,16,17,17,17,16,17,17,16,18,15,16,17,17,19,14,17,17,16,19,15,17,16,17,17,16,17,17,17,16,16,17,18,15,21,12,17,19,15,17,16,17,19,14,17,17,16,19,15,16,17,16,18,15,17,18,15,17,18,16,18,15,17,16,17,18,15,17,18,16,18,15,16,17,18,16,16,17,17,16,17,17,16,18,16,17,16,17,16,16,18,16,16,17,17,16,18,16,17,17,16,17,17,16,17,17,18,15,17,17,16,18,16,16,16,17,19,14,17,17,17,16,17,17,17,16,19,14,18,16,16,17,16,17,17,17,16,17,17,17,16,17,17,16,18,15,18,16,16,19,14,17,19,14,17,17,17,16,17,17,17,16,17,17,16,17,17,17,16,17,16,16,19,15,17,16,17,19,14,17,17,16,17,17,16,17,17,17,16,17,17,15,18,16,17,18,15,17,16,17,19,15,16,17,17,16,17,17,17,16,17,18,15,17,17,16,17,16,18,15]",
        "number_of_frames": 483,
        "canvas_width": 2560,
        "canvas_height": 1440,
        "blanking": false,
        "staircase": false,
        "trial_type": "disks",
        "trial_index": 7,
        "time_elapsed": 44311,
        "internal_node_id": "0.0-7.0-0.0"
    },
    {
        "animation_sequence": "[{\"stimulus\":{\"id\":\"red-dot\",\"x\":424,\"y\":424,\"width\":112,\"height\":112},\"time\":1002},{\"stimulus\":{\"id\":\"green-dot\",\"x\":424,\"y\":424,\"width\":112,\"height\":112},\"time\":2002}]",
        "responses": "[]",
        "trial_type": "animation",
        "trial_index": 8,
        "time_elapsed": 47314,
        "internal_node_id": "0.0-8.0"
    },
    {
        "rt": -1,
        "key_press": -1,
        "correct": false,
        "id": "disk-condition-11-1",
        "choices": [],
        "correct_choice": [
            "R"
        ],
        "trial_duration": 8000,
        "response_ends_trial": true,
        "central_intensity": 0.9,
        "surround_intensity": 0.45,
        "central_radius": 2,
        "surround_radius": 4,
        "ratio": 2,
        "speed": 1124,
        "direction": 1,
        "field_spacing": 96,
        "background_color": "gray",
        "frame_rate": 16.957537154989385,
        "frame_rate_array": "[0,13,2,32,1,1,12,12,16,15,17,15,17,249,6,12,12,12,12,12,12,12,12,16,17,16,17,18,15,17,17,17,17,16,17,16,17,18,15,17,17,17,15,18,16,17,16,17,17,16,17,17,16,17,17,17,16,17,17,16,18,15,17,16,18,18,14,17,17,17,16,17,17,17,77,6,12,12,12,12,12,12,12,19,15,15,16,19,15,16,17,17,19,14,17,17,16,19,14,17,17,17,16,17,17,16,17,18,15,17,17,18,17,15,16,17,19,17,14,17,19,14,17,16,17,18,16,16,17,17,19,14,17,17,16,17,16,17,18,15,17,17,16,18,16,16,17,17,16,17,17,16,17,19,14,17,17,17,16,18,16,17,16,19,15,16,18,15,16,17,17,16,17,17,17,17,16,17,16,18,16,16,17,17,16,17,19,14,17,20,13,17,17,17,17,15,18,16,16,19,14,17,17,17,16,17,17,17,16,17,17,16,17,16,17,17,16,18,15,17,17,17,18,15,16,17,18,17,15,17,17,16,17,17,17,16,17,16,17,17,17,16,17,16,18,17,15,17,16,17,19,14,17,17,17,16,17,17,16,17,17,17,16,17,17,15,17,17,18,16,17,16,16,19,15,16,18,16,18,15,17,17,17,16,17,17,16,16,18,15,17,18,16,16,17,17,18,15,17,17,16,18,16,17,16,17,17,16,17,17,16,20,15,15,17,18,15,17,17,16,17,17,16,17,17,16,17,17,16,18,16,16,17,17,18,15,17,16,17,17,16,17,17,15,17,17,17,18,16,18,16,15,19,15,16,17,17,16,17,17,17,16,17,17,16,17,17,17,16,17,18,15,16,17,17,18,15,17,16,17,18,16,16,17,17,16,17,17,17,16,17,16,17,17,17,15,17,17,18,15,17,18,15,19,15,17,16,17,28,5,17,17,17,16,17,17,16,16,17,17,16,18,16,16,17,17,18,15,17,17,16,18,16,16,17,17,18,15,16,17,17,17,16,17,17,16,17,19,15,17,16,18,15,17,18,14,17,18,16,16,17,16,18,16,17,16,17,18,15,17,17]",
        "number_of_frames": 471,
        "canvas_width": 2560,
        "canvas_height": 1440,
        "blanking": false,
        "staircase": false,
        "trial_type": "disks",
        "trial_index": 9,
        "time_elapsed": 55394,
        "internal_node_id": "0.0-9.0-0.0"
    },
    {
        "animation_sequence": "[{\"stimulus\":{\"id\":\"red-dot\",\"x\":424,\"y\":424,\"width\":112,\"height\":112},\"time\":1002},{\"stimulus\":{\"id\":\"green-dot\",\"x\":424,\"y\":424,\"width\":112,\"height\":112},\"time\":2001}]",
        "responses": "[]",
        "trial_type": "animation",
        "trial_index": 10,
        "time_elapsed": 58397,
        "internal_node_id": "0.0-10.0"
    },
    {
        "rt": -1,
        "key_press": -1,
        "correct": false,
        "id": "disk-condition-11-1",
        "choices": [],
        "correct_choice": [
            "R"
        ],
        "trial_duration": 8000,
        "response_ends_trial": true,
        "central_intensity": 0.9,
        "surround_intensity": 0.45,
        "central_radius": 2,
        "surround_radius": 4,
        "ratio": 2,
        "speed": 1124,
        "direction": 1,
        "field_spacing": 96,
        "background_color": "gray",
        "frame_rate": 16.563146997929607,
        "frame_rate_array": "[0,14,2,26,0,8,17,19,14,17,16,17,17,18,15,17,17,16,17,17,18,15,17,17,16,17,17,16,16,17,18,15,17,16,17,19,15,16,17,17,18,15,17,17,16,17,17,17,16,17,16,17,17,16,16,18,16,17,17,16,16,18,17,17,15,17,17,16,19,15,16,17,17,18,15,17,17,16,17,17,16,17,18,16,16,17,17,16,19,15,15,20,14,16,18,17,17,15,17,17,16,18,16,17,16,17,18,15,17,17,17,16,16,18,16,16,19,15,17,20,12,17,18,15,18,16,17,16,20,15,15,17,17,17,17,16,17,16,17,18,16,16,17,17,17,16,16,17,17,18,14,18,17,15,17,18,16,17,16,17,16,17,18,16,16,17,17,17,16,23,11,16,18,15,16,18,16,19,14,17,18,17,15,17,16,18,16,19,14,17,18,15,17,17,16,20,14,16,17,17,17,16,17,16,17,17,16,17,17,16,18,16,16,17,17,16,17,17,16,17,19,14,17,17,17,16,17,16,18,17,15,17,17,18,15,17,17,16,17,17,16,17,17,18,15,16,18,15,17,16,17,19,15,16,17,18,16,16,17,17,16,17,17,16,17,17,16,17,16,18,15,17,17,16,19,15,17,16,17,17,16,17,18,16,17,16,17,16,17,18,16,16,16,17,16,17,17,17,16,17,17,16,17,17,17,16,17,17,16,17,17,16,18,15,18,44,7,12,12,12,12,17,16,17,17,17,16,17,17,16,17,17,16,17,17,17,16,17,17,15,19,15,17,16,17,19,14,17,17,17,16,17,17,16,17,17,16,17,17,18,15,16,17,18,15,17,17,16,18,16,16,17,17,18,15,17,17,16,17,16,18,16,16,18,15,17,18,16,16,17,17,17,16,17,17,16,18,16,16,17,17,16,17,16,20,13,17,18,15,18,16,17,18,15,17,16,17,17,17,17,16,17,16,17,18,16,15,17,17,18,15,17,16,17,19,15,16,17,17,16,17,17,17,16,17,17,16,17,17,18,17,15,20,13,16,18,16,17,16,16,17,17,18,15,17,17,16,18,16,17,16,17,18,15,17,17,16,17,16,17,17,16,17]",
        "number_of_frames": 483,
        "canvas_width": 2560,
        "canvas_height": 1440,
        "blanking": false,
        "staircase": false,
        "trial_type": "disks",
        "trial_index": 11,
        "time_elapsed": 66477,
        "internal_node_id": "0.0-11.0-0.0"
    },
    {
        "animation_sequence": "[{\"stimulus\":{\"id\":\"red-dot\",\"x\":424,\"y\":424,\"width\":112,\"height\":112},\"time\":1002},{\"stimulus\":{\"id\":\"green-dot\",\"x\":424,\"y\":424,\"width\":112,\"height\":112},\"time\":2001}]",
        "responses": "[]",
        "trial_type": "animation",
        "trial_index": 12,
        "time_elapsed": 69484,
        "internal_node_id": "0.0-12.0"
    },
    {
        "rt": -1,
        "key_press": -1,
        "correct": false,
        "id": "disk-condition-11-1",
        "choices": [],
        "correct_choice": [
            "R"
        ],
        "trial_duration": 8000,
        "response_ends_trial": true,
        "central_intensity": 0.9,
        "surround_intensity": 0.45,
        "central_radius": 2,
        "surround_radius": 4,
        "ratio": 2,
        "speed": 1124,
        "direction": 1,
        "field_spacing": 96,
        "background_color": "gray",
        "frame_rate": 16.58091286307054,
        "frame_rate_array": "[1,13,7,23,0,9,12,29,15,16,17,16,18,17,16,16,17,17,16,17,17,17,15,17,18,15,17,17,17,18,15,17,16,17,18,15,17,17,19,14,17,16,17,16,18,17,15,18,16,16,17,17,17,16,17,17,16,18,16,16,17,17,17,16,17,16,16,19,15,17,16,17,19,14,17,17,17,18,15,17,19,14,17,16,18,16,16,17,16,17,18,16,16,17,18,16,16,17,16,17,18,16,16,17,17,15,17,17,17,16,18,17,15,18,16,17,16,17,17,16,17,17,17,17,15,17,16,17,19,15,16,18,15,19,15,17,16,17,19,14,17,18,15,17,17,17,17,16,17,17,16,19,14,17,17,17,17,15,17,18,16,17,16,17,17,15,19,16,15,18,16,19,14,17,17,16,20,15,15,18,16,16,17,17,18,15,17,17,16,19,15,16,17,17,16,17,17,16,18,16,17,16,17,16,16,18,16,18,15,17,18,15,18,16,16,17,17,18,15,17,17,16,17,17,16,17,16,17,16,18,17,15,17,17,17,18,15,17,16,17,18,16,16,17,17,16,17,17,16,17,16,17,16,18,16,16,17,17,18,15,17,18,16,17,16,17,16,17,18,15,17,17,16,16,17,18,16,16,17,16,17,18,16,16,17,17,18,16,16,16,17,19,15,16,18,15,17,17,17,16,17,17,16,17,17,17,16,17,16,18,15,17,16,17,18,16,16,17,17,18,15,19,15,16,18,15,17,18,15,20,14,17,16,17,16,17,17,17,16,17,16,17,18,15,17,17,17,16,17,17,16,16,17,17,16,18,16,16,17,17,18,15,17,17,16,18,16,16,18,16,17,16,17,16,17,18,16,16,17,17,16,17,16,17,16,18,16,16,18,16,16,17,17,18,15,17,17,16,18,16,16,17,17,18,14,18,16,18,15,17,17,17,16,17,16,17,17,17,16,17,17,17,16,17,17,16,18,15,16,17,17,19,14,17,17,16,19,15,16,18,17,19,13,17,17,16,17,17,16,17,17,17,16,17,17,15,18,16,17,18,15,17,18,15,18,15,17,17,17,18,15,17,16,18,17,16,16,17,17,16,17,17]",
        "number_of_frames": 482,
        "canvas_width": 2560,
        "canvas_height": 1440,
        "blanking": false,
        "staircase": false,
        "trial_type": "disks",
        "trial_index": 13,
        "time_elapsed": 77565,
        "internal_node_id": "0.0-13.0-0.0"
    }
]