[
    {
        "animation_sequence": "[{\"stimulus\":{\"id\":\"red-dot\",\"x\":424,\"y\":424,\"width\":112,\"height\":112},\"time\":1007},{\"stimulus\":{\"id\":\"green-dot\",\"x\":424,\"y\":424,\"width\":112,\"height\":112},\"time\":2002}]",
        "responses": "[]",
        "trial_type": "animation",
        "trial_index": 0,
        "time_elapsed": 3012,
        "internal_node_id": "0.0-0.0"
    },
    {
        "rt": -1,
        "key_press": -1,
        "correct": false,
        "id": "disk-condition-1-1",
        "choices": [],
        "correct_choice": [
            "R"
        ],
        "trial_duration": 8000,
        "response_ends_trial": true,
        "central_intensity": 0.9,
        "surround_intensity": 0.45,
        "central_radius": 18.5,
        "surround_radius": 37,
        "ratio": 2,
        "speed": 1124,
        "direction": 1,
        "field_spacing": 236,
        "background_color": "gray",
        "frame_rate": 10.030112923462987,
        "frame_rate_array": "[1,33,15,5,27,1,8,10,10,10,10,10,10,10,10,10,10,10,10,10,10,10,10,10,10,10,10,10,10,10,10,10,10,10,10,10,10,10,10,10,10,10,10,10,10,10,10,10,10,10,10,10,10,10,10,10,10,10,10,10,10,10,10,10,10,10,10,10,10,10,10,10,10,10,10,10,10,10,10,10,10,10,10,10,10,10,10,10,10,10,10,10,10,10,10,10,10,11,9,10,10,10,10,10,10,10,10,10,10,10,10,10,10,10,10,10,10,10,10,11,9,10,10,10,10,11,9,10,10,11,9,10,10,10,10,10,10,11,10,9,10,10,10,10,10,10,11,9,10,10,11,9,11,9,11,9,10,10,11,10,9,11,10,9,11,10,9,11,10,10,10,10,10,10,10,10,10,10,10,10,10,10,10,10,10,10,10,10,11,9,10,10,10,10,10,10,10,10,10,10,10,10,10,10,10,10,10,10,10,10,10,10,10,10,10,10,10,10,10,10,10,10,10,10,10,10,10,10,10,10,10,10,10,10,10,10,10,10,10,10,10,10,10,10,10,10,11,9,10,10,10,10,10,10,10,10,10,10,10,11,9,10,10,10,10,10,10,10,10,10,10,10,10,10,10,10,10,10,10,10,10,10,10,10,10,11,9,10,10,11,9,11,9,10,11,10,10,10,9,11,9,11,10,10,10,10,10,10,10,10,10,10,10,10,10,10,10,10,10,10,10,10,10,10,10,10,10,10,10,10,10,10,10,10,10,9,11,9,10,11,9,11,10,9,11,10,10,10,10,10,10,10,10,10,10,10,10,10,10,10,10,10,10,10,10,10,10,10,10,10,10,10,10,10,10,10,10,10,10,10,10,10,10,10,10,10,10,10,10,10,10,10,10,10,10,10,10,10,10,10,10,10,10,10,10,10,10,10,10,10,10,10,10,10,10,10,10,10,10,10,10,10,10,10,10,10,10,10,10,10,10,10,10,10,10,10,10,10,10,10,10,10,10,10,10,10,11,9,10,10,10,10,11,9,10,10,10,10,10,10,10,10,10,10,10,10,10,10,10,10,11,9,11,9,10,10,10,10,10,10,10,10,10,10,10,10,10,10,10,10,10,10,11,9,10,10,10,10,10,10,10,10,11,9,10,10,10,10,10,10,10,11,10,9,10,11,9,11,9,11,10,10,10,9,10,11,10,10,9,11,10,10,10,10,10,10,10,10,10,10,10,10,10,10,10,10,10,10,10,10,10,10,10,10,10,10,10,10,10,10,10,10,10,10,10,10,10,10,10,10,10,10,10,10,10,10,10,10,10,10,10,10,10,10,10,10,10,10,10,10,10,10,10,10,10,10,10,10,10,10,10,10,10,10,10,10,10,10,10,10,10,10,10,10,10,10,10,10,10,11,9,10,10,10,10,10,10,10,10,10,10,10,10,10,10,10,10,10,10,10,10,10,10,10,10,10,11,9,10,10,10,10,10,10,10,10,10,10,10,10,10,10,10,10,10,10,10,10,10,10,10,10,10,10,10,10,10,10,10,10,10,10,10,10,11,10,9,10,11,9,10,10,11,9,10,10,10,10,10,11,9,10,11,9,11,10,10,10,9,11,10,10,10,10,10,10,10,10,10,10,10,10,10,10,10,10,10,10,10,10,10,10,10,10,10,10,10,10,10,10,10,10,10,10,10,10,10,10,10,10,10,10,10,10,10,10,10,10,10,10,10,10,10,10,10,10,10,10,10,10,10,10,10,10,10,10,10,10,10,10,10,10,10,10,10,10,10,10,10,10,10,10,10,10,10,10,10]",
        "number_of_frames": 797,
        "canvas_width": 2560,
        "canvas_height": 1440,
        "blanking": false,
        "staircase": false,
        "trial_type": "disks",
        "trial_index": 1,
        "time_elapsed": 11113,
        "internal_node_id": "0.0-1.0-0.0"
    },
    {
        "animation_sequence": "[{\"stimulus\":{\"id\":\"red-dot\",\"x\":424,\"y\":424,\"width\":112,\"height\":112},\"time\":1001},{\"stimulus\":{\"id\":\"green-dot\",\"x\":424,\"y\":424,\"width\":112,\"height\":112},\"time\":2001}]",
        "responses": "[]",
        "trial_type": "animation",
        "trial_index": 2,
        "time_elapsed": 14116,
        "internal_node_id": "0.0-2.0"
    },
    {
        "rt": -1,
        "key_press": -1,
        "correct": false,
        "id": "disk-condition-1-1",
        "choices": [],
        "correct_choice": [
            "R"
        ],
        "trial_duration": 8000,
        "response_ends_trial": true,
        "central_intensity": 0.9,
        "surround_intensity": 0.45,
        "central_radius": 18.5,
        "surround_radius": 37,
        "ratio": 2,
        "speed": 1124,
        "direction": 1,
        "field_spacing": 236,
        "background_color": "gray",
        "frame_rate": 10.003754693366709,
        "frame_rate_array": "[1,11,2,36,1,8,10,10,10,10,10,10,10,10,10,10,10,10,10,10,10,10,10,10,10,10,10,10,10,10,10,10,10,10,10,10,10,10,10,10,10,10,10,10,10,10,10,10,10,10,10,10,10,11,9,10,10,10,10,10,10,10,10,10,10,10,10,10,10,10,10,10,10,10,10,10,10,10,10,10,10,10,10,10,10,10,10,10,10,10,10,10,10,10,10,10,10,10,10,10,10,10,11,10,9,10,10,10,10,10,10,10,10,10,10,10,10,10,10,10,11,9,10,10,10,10,11,10,9,11,9,10,10,10,10,10,10,11,9,10,10,11,9,10,10,10,11,10,10,10,10,9,11,10,10,10,10,10,10,10,10,10,10,10,10,10,10,10,10,10,10,10,10,10,10,10,10,10,10,10,10,10,10,10,10,10,10,10,10,10,10,10,10,10,10,10,10,10,10,10,10,10,10,10,10,10,10,10,10,10,10,10,10,10,10,10,10,10,10,10,10,10,10,10,10,10,10,10,10,10,10,10,10,10,10,10,10,10,10,10,10,10,10,10,10,10,10,10,10,10,10,10,10,10,10,10,10,10,10,10,10,10,10,10,10,10,10,10,10,10,11,9,10,11,9,10,10,10,11,9,10,10,11,10,9,11,9,11,9,10,11,10,10,10,10,10,10,10,10,10,10,10,10,10,10,10,10,10,10,10,10,10,10,10,10,10,10,10,10,10,10,10,10,10,10,10,10,10,10,10,10,10,10,10,10,10,10,10,10,10,10,10,10,10,10,10,10,10,10,10,10,10,10,10,10,10,10,10,10,10,10,10,10,10,10,10,10,10,10,10,10,10,10,10,10,10,10,10,10,10,10,10,10,10,10,10,10,10,10,10,10,10,10,10,10,10,10,10,10,10,10,10,10,10,10,10,10,10,10,10,10,10,10,10,10,10,10,10,10,10,10,10,10,10,10,10,10,10,10,10,10,10,10,10,10,10,10,10,10,10,10,10,10,10,10,10,10,10,10,10,10,10,10,10,10,10,11,9,11,9,10,10,10,10,10,10,10,10,10,10,10,10,10,11,9,10,10,10,10,10,10,10,10,11,9,10,10,10,10,10,10,10,10,11,10,9,11,9,10,11,9,10,10,10,10,10,11,9,10,11,9,11,9,11,9,11,10,10,10,10,10,10,10,10,10,10,10,10,10,10,10,10,10,10,10,10,10,10,10,10,10,10,10,10,10,10,10,10,10,10,10,10,10,10,10,10,10,10,10,10,10,10,10,10,10,10,10,10,10,10,10,10,10,10,10,10,10,10,10,10,10,10,10,10,10,10,10,10,10,10,11,9,10,10,10,10,10,10,10,10,10,10,10,10,10,10,10,10,10,10,10,10,10,10,10,10,10,10,10,10,10,10,10,10,10,10,10,10,10,10,10,10,10,10,10,10,10,10,10,10,10,10,10,10,10,10,10,10,10,10,10,10,10,10,10,10,10,10,10,10,10,10,10,10,10,10,10,10,10,10,10,10,10,11,9,10,10,10,10,10,10,10,10,10,11,9,11,9,10,10,10,10,10,11,10,10,10,10,10,10,10,10,10,10,10,10,10,10,10,10,10,10,10,10,10,10,10,10,10,10,10,10,10,10,10,10,10,10,10,10,10,10,10,10,10,10,11,9,10,10,10,10,10,10,11,9,10,10,10,10,10,10,10,10,10,10,10,10,10,10,10,10,10,10,10,10,10,10,10,10,10,10,10,10,10,10,10,10,10,10,10,10,10,10,10,10,10,10,10,10,10,10,10,10,10,10,10,10,10]",
        "number_of_frames": 799,
        "canvas_width": 2560,
        "canvas_height": 1440,
        "blanking": false,
        "staircase": false,
        "trial_type": "disks",
        "trial_index": 3,
        "time_elapsed": 22156,
        "internal_node_id": "0.0-3.0-0.0"
    },
    {
        "animation_sequence": "[{\"stimulus\":{\"id\":\"red-dot\",\"x\":424,\"y\":424,\"width\":112,\"height\":112},\"time\":1001},{\"stimulus\":{\"id\":\"green-dot\",\"x\":424,\"y\":424,\"width\":112,\"height\":112},\"time\":2002}]",
        "responses": "[]",
        "trial_type": "animation",
        "trial_index": 4,
        "time_elapsed": 25159,
        "internal_node_id": "0.0-4.0"
    },
    {
        "rt": -1,
        "key_press": -1,
        "correct": false,
        "id": "disk-condition-1-1",
        "choices": [],
        "correct_choice": [
            "R"
        ],
        "trial_duration": 8000,
        "response_ends_trial": true,
        "central_intensity": 0.9,
        "surround_intensity": 0.45,
        "central_radius": 18.5,
        "surround_radius": 37,
        "ratio": 2,
        "speed": 1124,
        "direction": 1,
        "field_spacing": 236,
        "background_color": "gray",
        "frame_rate": 10.006257822277847,
        "frame_rate_array": "[1,12,2,39,1,6,10,10,10,10,10,10,10,10,10,10,10,10,10,10,10,12,8,10,10,10,10,10,10,10,10,10,10,10,10,10,10,10,10,10,10,10,10,10,10,10,10,10,10,10,10,10,10,10,10,10,10,10,10,10,10,10,10,10,10,10,10,10,10,10,10,10,10,10,10,10,11,9,10,10,10,10,10,10,10,10,10,10,10,10,10,10,10,10,10,10,10,10,10,10,10,10,10,10,10,10,10,10,10,10,11,9,10,10,11,9,10,10,10,10,10,10,10,11,9,10,10,10,10,10,11,10,10,9,10,11,10,10,10,10,10,10,10,10,10,10,10,10,10,10,10,10,10,10,10,10,10,10,10,10,10,10,10,10,10,10,10,10,10,10,10,10,10,10,10,10,10,10,10,10,10,10,10,10,10,10,10,10,10,10,10,10,10,10,10,10,10,10,10,10,10,10,10,10,10,10,10,10,10,10,10,10,10,10,10,10,10,10,10,10,10,10,10,10,10,10,10,10,10,10,10,10,10,10,10,10,10,10,10,10,10,11,9,10,10,10,10,10,10,10,10,10,10,10,11,10,9,10,10,10,10,10,10,10,11,9,11,10,9,11,9,10,11,9,11,9,11,10,10,10,10,10,10,10,10,10,10,10,10,10,10,10,10,10,10,10,10,10,10,10,10,10,10,10,10,10,10,10,10,10,10,10,10,10,10,10,10,10,10,10,10,10,10,10,10,10,10,10,10,10,10,10,10,10,10,10,10,10,10,10,10,10,10,10,10,10,10,10,10,10,10,10,10,10,10,10,10,10,10,10,10,10,10,10,10,10,10,10,10,10,10,10,10,10,10,10,10,10,10,10,10,10,10,10,10,10,10,10,10,10,10,10,10,10,10,10,10,10,10,10,10,10,10,10,10,10,10,10,10,10,10,11,9,10,10,10,10,10,10,10,10,10,10,10,10,10,10,11,9,10,10,10,10,10,11,9,10,10,10,10,10,10,10,10,10,10,11,10,9,10,10,10,10,10,11,9,10,10,10,10,10,11,10,9,10,10,10,10,10,10,10,10,10,10,10,10,10,10,10,10,11,9,10,10,10,10,10,11,9,10,11,9,11,9,11,10,10,10,9,11,10,10,10,10,10,10,10,10,10,10,10,11,9,10,10,10,10,10,10,10,10,10,10,10,10,10,10,10,10,10,10,10,10,10,10,10,10,10,10,10,10,10,10,10,10,10,10,10,10,10,10,10,10,10,10,10,10,10,10,10,10,10,10,10,10,10,10,10,10,10,10,10,10,10,10,10,10,10,10,10,10,10,10,10,10,10,10,10,10,10,10,10,10,10,10,10,10,10,10,10,10,10,10,10,10,10,10,10,10,10,10,10,10,10,10,10,10,10,10,10,10,10,10,10,10,11,9,11,9,10,10,10,10,10,10,10,10,10,10,10,10,10,10,12,8,10,10,10,10,10,10,10,10,11,10,9,10,10,10,10,11,9,10,10,10,10,10,11,9,11,10,10,10,9,11,9,11,10,10,10,10,10,10,9,11,10,10,10,10,10,10,10,10,10,10,10,10,10,10,10,10,10,10,10,10,10,10,10,10,10,10,10,10,10,10,10,10,10,10,10,10,10,10,10,10,10,10,10,10,10,10,10,10,10,10,10,10,10,10,10,10,10,10,10,10,10,10,10,10,10,10,10,10,10,10,10,10,10,10,10,10,10,10,10,10,10,10,10,10,10,10,10,10,10,10,10,10,10,10,10,10,10,10,10,10,10,10,10,10,10,10,10,10,10,10,10,10,10,10]",
        "number_of_frames": 799,
        "canvas_width": 2560,
        "canvas_height": 1440,
        "blanking": false,
        "staircase": false,
        "trial_type": "disks",
        "trial_index": 5,
        "time_elapsed": 33208,
        "internal_node_id": "0.0-5.0-0.0"
    },
    {
        "animation_sequence": "[{\"stimulus\":{\"id\":\"red-dot\",\"x\":424,\"y\":424,\"width\":112,\"height\":112},\"time\":1001},{\"stimulus\":{\"id\":\"green-dot\",\"x\":424,\"y\":424,\"width\":112,\"height\":112},\"time\":2001}]",
        "responses": "[]",
        "trial_type": "animation",
        "trial_index": 6,
        "time_elapsed": 36211,
        "internal_node_id": "0.0-6.0"
    },
    {
        "rt": -1,
        "key_press": -1,
        "correct": false,
        "id": "disk-condition-1-1",
        "choices": [],
        "correct_choice": [
            "R"
        ],
        "trial_duration": 8000,
        "response_ends_trial": true,
        "central_intensity": 0.9,
        "surround_intensity": 0.45,
        "central_radius": 18.5,
        "surround_radius": 37,
        "ratio": 2,
        "speed": 1124,
        "direction": 1,
        "field_spacing": 236,
        "background_color": "gray",
        "frame_rate": 9.99375,
        "frame_rate_array": "[1,8,2,37,0,3,10,10,10,10,10,10,10,10,10,10,10,10,10,10,10,10,10,10,10,10,10,10,10,10,10,10,10,10,10,10,10,10,10,11,10,9,10,10,10,10,11,9,10,10,10,10,10,10,10,10,10,10,10,10,10,10,10,10,10,10,10,10,10,10,10,10,10,10,10,10,10,10,10,10,10,10,10,10,10,10,10,10,10,10,11,9,10,10,10,10,11,9,10,10,10,11,10,9,10,10,10,10,10,10,11,9,10,11,9,11,10,10,10,10,10,10,10,10,10,10,10,10,10,10,10,10,10,10,10,10,10,10,10,10,10,10,10,10,10,10,10,10,10,10,10,10,10,10,10,10,10,10,10,10,10,10,10,10,10,10,10,10,10,10,10,10,10,10,10,10,10,10,10,10,10,10,10,10,10,10,10,10,10,10,10,10,10,10,10,10,10,10,10,10,10,10,10,10,10,10,10,10,10,10,10,10,10,10,10,10,10,10,10,10,10,10,10,10,10,10,10,10,10,10,10,10,10,10,10,10,10,10,10,10,10,11,9,10,10,10,11,9,11,9,10,10,11,9,10,11,10,10,9,11,10,10,10,10,10,10,10,10,10,10,10,10,10,10,10,10,10,10,10,10,10,10,10,10,10,10,10,10,10,10,10,10,10,10,10,10,10,10,10,10,10,10,10,10,10,10,10,10,10,10,10,10,10,10,10,10,10,10,10,10,10,11,9,10,10,10,10,10,10,10,10,10,10,10,10,10,10,10,10,10,10,10,10,10,10,10,10,10,10,10,10,10,10,10,10,10,10,10,10,10,10,10,10,10,10,10,10,10,10,10,10,10,10,10,10,10,10,10,10,10,10,10,10,10,10,10,10,10,10,10,10,10,10,10,10,10,10,10,10,10,10,10,10,10,10,10,10,10,10,11,9,10,10,10,10,10,10,10,10,10,10,10,10,10,10,10,10,10,10,10,10,11,9,10,10,10,11,9,10,11,9,10,11,9,10,10,10,10,10,10,10,10,10,10,10,10,10,10,11,9,10,10,11,9,10,10,11,9,10,11,10,10,10,10,9,10,11,9,10,11,9,11,10,9,11,10,10,10,10,10,10,10,10,10,10,10,10,10,10,10,10,10,10,10,10,10,10,10,10,10,10,10,10,10,10,10,10,10,10,10,10,10,10,10,10,10,10,10,10,10,10,10,10,10,10,10,10,10,10,10,10,10,10,10,10,10,10,10,10,10,10,10,10,10,10,10,10,10,10,10,10,10,10,10,10,10,10,10,10,10,10,10,10,10,10,10,10,10,10,10,10,10,10,10,10,10,10,10,10,10,10,10,10,10,10,10,10,10,10,10,10,10,10,10,10,10,10,10,10,10,10,10,10,10,10,10,10,10,10,10,10,11,9,11,9,10,10,10,10,10,10,10,11,9,11,9,10,10,10,11,9,10,10,10,10,10,10,10,10,10,10,10,11,10,9,11,10,9,11,10,9,11,10,10,10,10,9,11,10,10,10,10,10,10,10,10,10,10,10,11,9,10,10,10,10,10,10,10,10,10,10,10,10,10,10,10,10,10,10,10,10,10,10,10,10,10,10,10,10,10,10,10,10,10,10,10,10,10,10,10,10,10,10,10,10,10,10,10,10,10,10,10,10,10,10,10,10,10,10,10,10,10,10,10,10,10,10,10,11,9,10,10,10,10,10,10,10,10,10,10,10,10,10,10,10,10,10,10,10,10,10,10,10,10,10,10,10,10,10,10,10,10,10,10,10,10,10,10,10,10,10,10,10,10,10,10,10,10,10,10]",
        "number_of_frames": 800,
        "canvas_width": 2560,
        "canvas_height": 1440,
        "blanking": false,
        "staircase": false,
        "trial_type": "disks",
        "trial_index": 7,
        "time_elapsed": 44266,
        "internal_node_id": "0.0-7.0-0.0"
    },
    {
        "animation_sequence": "[{\"stimulus\":{\"id\":\"red-dot\",\"x\":424,\"y\":424,\"width\":112,\"height\":112},\"time\":1002},{\"stimulus\":{\"id\":\"green-dot\",\"x\":424,\"y\":424,\"width\":112,\"height\":112},\"time\":2002}]",
        "responses": "[]",
        "trial_type": "animation",
        "trial_index": 8,
        "time_elapsed": 47269,
        "internal_node_id": "0.0-8.0"
    },
    {
        "rt": -1,
        "key_press": -1,
        "correct": false,
        "id": "disk-condition-1-1",
        "choices": [],
        "correct_choice": [
            "R"
        ],
        "trial_duration": 8000,
        "response_ends_trial": true,
        "central_intensity": 0.9,
        "surround_intensity": 0.45,
        "central_radius": 18.5,
        "surround_radius": 37,
        "ratio": 2,
        "speed": 1124,
        "direction": 1,
        "field_spacing": 236,
        "background_color": "gray",
        "frame_rate": 9.99875,
        "frame_rate_array": "[1,12,3,34,1,4,10,10,10,10,10,10,10,10,10,10,10,10,10,10,11,9,10,10,10,10,10,10,10,10,10,10,10,10,10,10,10,10,10,10,10,10,10,10,10,11,9,10,10,10,10,10,10,10,10,10,11,9,10,10,10,10,10,10,10,10,10,11,9,10,10,10,10,10,10,10,10,10,10,10,10,10,10,10,10,10,10,10,11,9,10,10,10,10,10,11,9,10,10,11,10,9,11,10,10,10,10,10,10,10,10,10,10,10,10,10,10,10,10,10,10,10,10,10,10,10,10,10,10,10,10,10,10,10,10,10,10,10,10,10,10,10,10,10,10,10,10,10,10,10,10,10,10,10,10,10,10,10,10,10,10,10,10,10,10,10,10,10,10,10,10,10,10,10,10,10,10,10,10,10,10,10,10,10,10,10,10,10,10,10,10,10,10,10,10,10,10,10,10,10,10,10,10,10,10,10,10,10,10,10,10,10,10,10,10,10,10,10,10,10,10,10,10,10,10,10,10,11,9,10,10,10,10,10,10,10,10,11,9,11,10,10,10,10,10,10,10,10,10,10,10,10,10,10,10,10,10,10,10,10,10,10,10,10,10,10,10,10,10,10,10,10,10,10,10,10,10,10,10,10,10,10,10,10,10,10,10,10,10,10,10,10,10,10,10,10,10,10,10,10,10,10,10,10,10,10,10,10,10,10,10,10,10,10,10,10,10,10,10,10,10,10,10,10,10,10,10,11,10,9,10,10,10,10,10,10,10,11,9,10,11,9,10,10,10,10,10,10,10,10,10,10,10,10,10,10,10,10,10,10,10,10,10,10,10,10,10,10,10,10,10,10,10,10,10,10,10,10,10,10,10,10,10,10,10,10,10,10,10,10,10,10,10,10,10,10,10,10,10,10,10,10,10,10,10,10,10,10,10,10,10,10,10,10,10,10,10,10,10,10,11,9,10,10,10,10,11,9,10,10,10,10,10,10,10,10,11,9,10,10,10,10,11,9,10,10,10,10,10,10,11,9,10,10,10,10,11,10,9,10,10,10,11,9,11,9,11,10,10,10,10,10,10,10,10,10,10,10,10,10,10,10,10,10,10,10,10,10,10,10,10,10,10,10,10,10,10,10,10,10,10,10,10,10,10,10,10,10,10,10,10,10,10,10,10,10,10,10,10,10,10,10,10,10,10,10,10,10,10,10,10,10,10,10,10,10,10,11,9,10,10,10,10,10,10,10,10,10,10,10,10,10,10,10,10,10,10,10,10,10,10,10,10,10,10,10,10,10,10,10,10,10,10,10,10,10,10,10,10,10,10,10,10,10,10,10,10,10,10,10,10,10,10,10,10,10,10,10,10,10,10,10,10,10,10,10,10,10,10,10,10,10,10,10,10,10,10,10,10,11,10,10,9,10,11,9,10,10,11,10,9,10,10,10,10,10,10,11,9,10,11,10,9,11,9,10,10,11,10,10,10,10,10,10,10,10,10,10,10,10,10,10,10,10,10,10,10,10,10,10,10,10,10,10,10,10,10,10,10,10,10,10,10,10,10,10,10,10,10,10,10,10,10,10,10,10,10,10,10,10,10,10,10,10,10,10,10,10,10,10,10,10,10,10,10,10,10,10,10,10,10,10,10,10,10,10,10,10,10,10,10,10,10,10,10,10,10,10,10,10,10,10,10,10,10,10,10,10,10,10,10,10,10,10,10,10,10,10,10,10,10,10,10,10,10,10,10,10,10,10,10,10,10,11,9,10,10,10,10,10,10,10,10,10,10,10,10,10,10,10,10,10,10,10,10,10,10,10,10,10]",
        "number_of_frames": 800,
        "canvas_width": 2560,
        "canvas_height": 1440,
        "blanking": false,
        "staircase": false,
        "trial_type": "disks",
        "trial_index": 9,
        "time_elapsed": 55316,
        "internal_node_id": "0.0-9.0-0.0"
    },
    {
        "animation_sequence": "[{\"stimulus\":{\"id\":\"red-dot\",\"x\":424,\"y\":424,\"width\":112,\"height\":112},\"time\":1002},{\"stimulus\":{\"id\":\"green-dot\",\"x\":424,\"y\":424,\"width\":112,\"height\":112},\"time\":2003}]",
        "responses": "[]",
        "trial_type": "animation",
        "trial_index": 10,
        "time_elapsed": 58319,
        "internal_node_id": "0.0-10.0"
    },
    {
        "rt": -1,
        "key_press": -1,
        "correct": false,
        "id": "disk-condition-1-1",
        "choices": [],
        "correct_choice": [
            "R"
        ],
        "trial_duration": 8000,
        "response_ends_trial": true,
        "central_intensity": 0.9,
        "surround_intensity": 0.45,
        "central_radius": 18.5,
        "surround_radius": 37,
        "ratio": 2,
        "speed": 1124,
        "direction": 1,
        "field_spacing": 236,
        "background_color": "gray",
        "frame_rate": 9.995,
        "frame_rate_array": "[0,11,2,34,1,4,10,10,10,10,10,10,10,10,10,10,10,10,10,10,10,10,10,10,10,10,10,10,10,10,10,10,10,10,10,10,10,11,9,10,10,10,10,10,10,10,10,10,10,10,10,10,10,10,10,10,10,10,10,10,10,11,9,11,9,10,10,10,10,11,9,10,10,10,10,10,10,11,9,11,10,9,11,9,11,10,9,11,10,10,10,10,10,10,10,10,10,10,10,10,10,10,10,10,10,10,10,10,10,10,10,10,10,10,10,10,10,10,10,10,10,10,10,10,10,10,10,10,10,10,10,10,10,10,10,10,10,10,10,10,10,10,10,10,10,10,10,10,10,10,10,10,10,10,10,10,10,10,10,10,10,10,10,10,11,9,10,10,10,10,10,10,10,10,10,10,10,10,10,10,10,10,10,10,10,10,10,10,10,10,10,10,10,10,10,10,10,10,10,10,10,10,10,10,10,10,10,10,10,10,10,10,10,10,10,10,10,10,10,10,10,10,10,10,10,10,10,10,10,10,10,10,10,10,10,10,10,10,11,9,10,10,10,10,11,9,11,10,10,10,10,10,10,10,10,10,10,10,10,10,10,10,10,10,10,10,10,10,10,10,10,10,10,10,10,10,10,10,10,10,10,10,10,10,10,10,10,10,10,10,10,10,10,10,10,10,10,10,10,11,9,10,10,10,10,10,10,10,10,10,10,10,10,10,10,10,10,10,10,10,10,10,10,10,10,10,10,10,10,10,10,10,10,10,10,10,10,10,10,10,10,10,10,10,10,10,10,10,10,10,10,10,10,10,10,10,10,10,10,10,10,10,10,10,10,10,10,10,10,10,10,10,10,10,10,10,10,10,10,10,10,10,10,10,10,10,10,10,10,11,9,10,10,10,10,10,10,10,10,11,9,10,10,10,10,10,10,10,10,10,10,10,11,9,10,10,10,10,10,10,10,10,10,11,9,11,9,10,10,10,10,11,10,9,11,9,10,10,10,10,10,10,10,11,9,11,9,10,11,10,10,9,11,10,10,10,10,10,10,10,10,10,10,10,10,10,10,10,10,10,10,10,10,10,10,10,10,10,10,10,10,10,10,10,10,10,10,10,10,10,10,10,10,10,10,10,10,10,10,10,10,10,10,10,10,10,10,10,10,10,10,10,10,10,10,10,10,10,10,10,10,10,10,10,10,10,10,10,10,10,10,10,10,10,10,10,10,10,10,10,10,10,10,10,10,10,10,10,10,10,10,10,10,10,10,10,10,10,10,10,10,10,10,11,9,10,10,10,10,10,10,10,10,10,10,10,10,10,10,10,10,10,10,10,10,11,9,10,10,10,10,10,10,10,10,11,9,10,10,11,9,10,11,9,10,10,10,10,10,10,10,10,11,10,9,10,11,10,9,10,10,10,10,11,9,10,10,10,11,9,10,10,11,10,10,10,10,10,10,9,11,10,10,10,10,10,10,10,10,10,10,10,10,10,10,10,10,10,10,10,10,10,10,10,10,10,10,10,10,10,10,10,10,10,10,10,10,10,10,10,10,10,10,10,10,10,10,10,10,10,10,10,10,10,10,10,10,10,10,10,10,10,10,10,10,10,10,10,10,10,10,10,10,10,10,10,10,10,10,10,10,10,10,10,10,10,10,10,10,10,10,10,10,10,11,9,10,10,10,10,10,10,10,10,10,10,10,10,10,10,10,10,10,10,10,10,10,10,10,10,10,10,11,9,10,10,10,10,10,10,10,10,10,10,10,10,11,9,10,10,10,10,10,10,11,9,10,10,10,11,9,11,10,9,10,10,10,10,10,10]",
        "number_of_frames": 800,
        "canvas_width": 2560,
        "canvas_height": 1440,
        "blanking": false,
        "staircase": false,
        "trial_type": "disks",
        "trial_index": 11,
        "time_elapsed": 66365,
        "internal_node_id": "0.0-11.0-0.0"
    },
    {
        "animation_sequence": "[{\"stimulus\":{\"id\":\"red-dot\",\"x\":424,\"y\":424,\"width\":112,\"height\":112},\"time\":1001},{\"stimulus\":{\"id\":\"green-dot\",\"x\":424,\"y\":424,\"width\":112,\"height\":112},\"time\":2001}]",
        "responses": "[]",
        "trial_type": "animation",
        "trial_index": 12,
        "time_elapsed": 69368,
        "internal_node_id": "0.0-12.0"
    },
    {
        "rt": -1,
        "key_press": -1,
        "correct": false,
        "id": "disk-condition-1-1",
        "choices": [],
        "correct_choice": [
            "R"
        ],
        "trial_duration": 8000,
        "response_ends_trial": true,
        "central_intensity": 0.9,
        "surround_intensity": 0.45,
        "central_radius": 18.5,
        "surround_radius": 37,
        "ratio": 2,
        "speed": 1124,
        "direction": 1,
        "field_spacing": 236,
        "background_color": "gray",
        "frame_rate": 9.9925,
        "frame_rate_array": "[1,11,2,27,1,7,10,10,10,10,10,10,10,10,10,10,10,10,11,9,10,10,10,10,10,10,10,10,11,9,10,11,9,10,10,10,10,10,10,10,10,10,10,10,10,10,10,10,10,10,10,11,10,9,10,10,10,10,11,9,11,10,9,11,9,11,9,11,10,10,9,11,10,10,10,10,10,10,10,10,10,10,10,10,10,10,10,10,10,10,10,10,10,10,10,10,10,10,10,10,10,10,10,10,10,10,10,10,10,10,10,10,10,10,10,10,10,10,10,10,10,10,10,10,10,10,10,10,10,10,10,10,10,10,10,10,10,10,10,10,10,10,10,10,10,10,10,10,10,10,10,10,10,10,10,10,10,10,10,10,10,10,10,10,10,10,10,10,10,10,10,10,10,10,10,10,10,10,10,11,9,10,10,10,10,11,9,10,10,10,10,10,10,10,10,10,10,10,10,10,10,10,10,10,10,10,10,10,10,10,10,11,9,10,10,10,10,10,10,10,10,10,10,10,11,9,10,10,10,10,10,10,10,10,11,10,9,11,9,11,10,10,10,10,10,10,10,10,10,10,10,10,10,10,10,10,10,10,10,10,10,10,10,10,10,10,10,10,10,10,10,10,10,10,10,10,10,10,10,10,10,10,10,10,10,10,10,10,10,10,10,10,10,10,10,10,10,10,10,10,10,10,10,10,10,10,10,10,10,10,10,10,10,10,10,10,10,10,10,10,10,10,10,10,10,10,10,10,10,10,10,10,10,10,10,10,10,10,10,10,10,10,10,10,10,10,10,10,10,10,10,10,10,10,10,10,10,10,10,10,10,10,10,10,10,10,10,10,10,10,10,10,10,10,10,10,10,10,10,10,10,10,10,10,10,10,10,10,10,10,10,10,10,10,10,10,10,10,10,10,10,10,10,10,10,10,10,10,10,10,10,10,10,10,10,10,10,10,11,10,9,11,9,11,10,9,10,10,10,10,10,10,11,9,11,9,11,10,10,10,10,10,10,10,10,10,10,10,10,10,10,10,10,10,10,10,10,10,10,10,10,10,10,10,10,10,10,10,10,10,10,10,10,10,10,10,10,10,10,10,10,10,10,10,10,10,10,10,10,10,10,10,10,10,10,10,10,10,10,10,10,10,10,10,11,9,10,10,10,10,10,10,10,10,10,10,10,10,10,10,10,10,10,10,10,10,10,10,10,10,10,11,9,10,10,10,10,10,10,10,10,10,10,11,9,10,10,10,10,10,10,10,10,10,10,10,10,11,9,10,10,10,10,10,10,10,10,10,10,10,10,10,11,9,10,10,10,10,10,10,10,10,10,11,9,10,10,10,10,10,10,10,10,10,11,10,9,11,10,9,10,10,10,10,10,10,10,11,9,10,11,10,10,9,11,9,10,11,9,11,10,10,10,10,10,10,10,10,10,10,10,10,10,10,10,10,10,10,10,10,10,10,10,10,10,10,10,10,10,10,10,10,10,10,10,10,10,10,10,10,10,10,10,10,10,10,10,10,10,10,10,10,10,10,10,10,10,10,10,10,10,10,10,10,10,10,10,10,10,10,10,10,10,10,10,11,9,10,10,10,10,10,10,10,10,10,10,10,10,10,10,10,10,10,10,10,10,10,10,10,10,10,10,10,10,10,10,10,10,10,10,10,10,10,10,10,10,10,10,10,10,10,10,10,10,10,10,10,10,10,10,10,10,10,10,10,10,10,10,10,10,10,10,10,10,10,10,11,9,10,10,10,10,10,11,9,10,10,11,10,9,10,11,9,10,10,10,10,10,10,10,10,10,10,11,9,11,10,9,11]",
        "number_of_frames": 800,
        "canvas_width": 2560,
        "canvas_height": 1440,
        "blanking": false,
        "staircase": false,
        "trial_type": "disks",
        "trial_index": 13,
        "time_elapsed": 77414,
        "internal_node_id": "0.0-13.0-0.0"
    }
]