[
    {
        "animation_sequence": "[{\"stimulus\":{\"id\":\"red-dot\",\"x\":424,\"y\":424,\"width\":112,\"height\":112},\"time\":1002},{\"stimulus\":{\"id\":\"green-dot\",\"x\":424,\"y\":424,\"width\":112,\"height\":112},\"time\":2002}]",
        "responses": "[]",
        "trial_type": "animation",
        "trial_index": 0,
        "time_elapsed": 3003,
        "internal_node_id": "0.0-0.0"
    },
    {
        "rt": -1,
        "key_press": -1,
        "correct": false,
        "id": "disk-condition-1-1",
        "choices": [],
        "correct_choice": [
            "R"
        ],
        "trial_duration": 8000,
        "response_ends_trial": true,
        "central_intensity": 0.9,
        "surround_intensity": 0.45,
        "central_radius": 18.5,
        "surround_radius": 37,
        "ratio": 2,
        "speed": 1124,
        "direction": 1,
        "field_spacing": 236,
        "background_color": "gray",
        "frame_rate": 9.9925,
        "frame_rate_array": "[0,11,1,28,0,10,10,10,10,10,10,10,10,10,10,10,10,10,10,10,10,10,10,10,10,10,10,10,10,10,10,10,10,10,10,10,10,11,9,10,10,10,10,10,10,10,10,10,10,10,10,10,10,10,10,10,10,10,10,10,10,10,10,10,11,9,11,9,10,10,10,10,10,10,10,10,10,10,10,10,10,10,10,10,10,10,10,11,9,10,10,10,10,10,10,10,10,10,10,10,10,10,10,10,10,10,10,10,10,10,11,10,9,10,10,10,11,10,10,10,9,11,10,10,10,10,10,10,10,10,10,10,10,10,10,10,10,10,10,10,10,10,10,10,10,10,10,10,10,10,10,10,10,10,10,10,10,10,10,10,10,10,10,10,10,10,10,10,10,10,10,10,10,10,10,10,10,10,10,10,10,10,10,10,10,10,10,11,9,10,10,10,10,10,10,10,10,10,10,10,10,10,10,10,12,8,10,12,8,10,10,10,10,10,10,10,10,10,10,10,10,10,10,10,10,10,10,10,10,10,10,10,10,10,10,10,10,10,10,10,10,10,10,10,10,10,10,11,9,10,10,10,10,11,9,11,9,11,9,11,10,9,10,11,9,10,10,10,12,8,10,11,10,10,10,10,10,9,10,10,10,10,10,10,10,11,10,10,10,10,9,11,10,10,10,9,10,11,10,10,10,10,10,10,10,10,10,10,10,10,10,10,10,10,10,10,10,10,10,10,10,10,10,10,10,10,10,10,10,10,10,10,10,10,10,10,10,10,10,10,10,10,10,10,10,10,10,10,10,10,10,10,10,10,10,10,10,10,10,10,10,10,10,10,10,10,10,10,10,10,10,10,10,10,10,10,10,10,10,10,11,9,10,10,10,10,10,10,10,10,10,10,10,10,10,10,10,10,10,10,10,10,11,9,10,10,10,10,10,10,10,10,10,10,10,10,10,10,10,10,10,10,10,10,10,10,10,10,10,10,10,10,10,10,10,10,10,10,10,10,11,9,10,10,10,10,10,10,10,10,10,10,10,10,11,9,10,10,10,11,11,9,10,9,11,9,10,11,9,10,11,9,10,11,9,11,10,10,10,10,10,9,10,10,10,10,10,11,9,10,11,9,11,10,10,10,10,10,10,10,10,10,10,10,10,10,10,10,10,10,10,10,10,10,10,10,10,10,10,10,10,10,10,10,10,10,10,10,10,10,10,10,10,10,10,10,10,10,10,10,10,10,10,10,10,10,10,10,10,10,10,10,10,10,10,10,10,10,10,10,10,10,10,10,10,10,10,10,10,10,10,10,10,10,10,10,10,10,10,10,10,10,10,10,10,10,10,10,10,10,10,10,10,10,10,10,10,10,10,10,10,10,10,10,10,10,10,10,10,10,10,10,10,10,10,10,10,10,10,10,11,9,10,10,10,11,9,10,10,10,11,9,10,10,10,10,10,10,10,10,10,10,10,10,10,11,9,10,10,10,11,9,10,11,10,9,10,10,10,11,10,9,11,9,10,10,10,11,10,9,11,9,11,10,10,10,10,10,10,10,10,10,10,10,10,10,10,10,10,10,10,10,10,10,12,8,10,10,10,10,10,10,10,10,10,10,10,11,9,10,10,10,10,10,10,10,10,10,10,10,10,10,10,10,10,10,10,10,10,10,11,9,10,10,10,10,10,10,10,10,10,10,10,10,10,10,10,10,10,10,10,10,10,10,10,10,10,10,10,10,10,10,10,11,9,10,10,10,10,10,10,10,10,10,10,10,10,10,10,10,10,10,10,10,10,10,10,10,10,10,10,10,11,9,10,10,10,10,10,10]",
        "number_of_frames": 800,
        "canvas_width": 2560,
        "canvas_height": 1440,
        "blanking": false,
        "staircase": false,
        "trial_type": "disks",
        "trial_index": 1,
        "time_elapsed": 11076,
        "internal_node_id": "0.0-1.0-0.0"
    },
    {
        "animation_sequence": "[{\"stimulus\":{\"id\":\"red-dot\",\"x\":424,\"y\":424,\"width\":112,\"height\":112},\"time\":1001},{\"stimulus\":{\"id\":\"green-dot\",\"x\":424,\"y\":424,\"width\":112,\"height\":112},\"time\":2002}]",
        "responses": "[]",
        "trial_type": "animation",
        "trial_index": 2,
        "time_elapsed": 14081,
        "internal_node_id": "0.0-2.0"
    },
    {
        "rt": -1,
        "key_press": -1,
        "correct": false,
        "id": "disk-condition-1-1",
        "choices": [],
        "correct_choice": [
            "R"
        ],
        "trial_duration": 8000,
        "response_ends_trial": true,
        "central_intensity": 0.9,
        "surround_intensity": 0.45,
        "central_radius": 18.5,
        "surround_radius": 37,
        "ratio": 2,
        "speed": 1124,
        "direction": 1,
        "field_spacing": 236,
        "background_color": "gray",
        "frame_rate": 9.99,
        "frame_rate_array": "[0,11,5,29,0,1,10,10,10,10,10,10,10,10,10,10,10,10,10,10,10,10,10,11,9,10,10,10,10,11,9,10,10,10,10,10,10,10,10,10,10,10,10,10,10,10,10,10,10,10,10,10,10,10,10,10,10,10,10,11,9,10,10,10,10,10,10,10,10,11,10,9,10,10,10,10,10,10,10,10,10,10,10,10,10,10,10,11,9,11,10,9,11,9,10,10,10,10,10,11,9,10,10,10,10,11,10,10,10,10,10,10,10,10,10,10,10,10,10,10,10,10,10,10,10,10,10,10,10,10,10,10,10,10,10,10,10,10,10,10,10,10,10,10,10,10,10,10,10,10,10,10,10,10,10,10,10,10,10,10,10,10,10,10,10,10,10,10,10,10,10,10,10,10,10,10,10,10,10,10,10,10,10,10,10,10,10,10,10,10,10,10,10,10,10,10,11,9,10,10,10,10,10,10,10,10,10,10,10,10,10,10,11,9,10,10,10,10,10,10,10,10,11,9,10,10,10,10,10,10,10,10,10,10,10,10,10,10,10,10,10,10,11,9,10,11,10,10,10,10,10,10,10,10,10,10,10,10,10,10,10,10,10,10,10,10,10,10,10,10,10,10,10,10,10,10,10,10,10,10,10,10,10,10,10,10,10,10,10,10,10,10,10,10,10,10,10,10,10,10,10,10,10,10,10,10,10,10,10,10,10,10,10,10,11,9,10,10,10,10,10,10,10,10,10,10,10,10,10,10,10,10,10,10,10,10,10,10,10,10,10,10,10,10,10,10,10,10,10,10,10,10,11,9,10,10,10,10,10,11,10,10,11,9,10,10,10,10,10,10,10,10,10,10,10,10,10,10,10,10,10,10,10,10,10,10,10,10,10,10,10,10,11,9,10,10,10,10,10,10,10,10,10,10,10,10,10,10,10,10,10,10,10,10,10,10,10,10,10,10,10,10,10,10,10,10,11,9,10,10,10,10,11,10,9,10,10,10,10,11,10,9,11,9,11,9,10,10,10,10,11,9,10,10,10,11,10,10,9,11,10,10,10,10,10,10,10,10,10,10,10,10,10,10,10,10,10,10,10,10,10,10,10,10,10,10,10,10,10,10,10,10,10,10,10,10,10,10,10,10,10,10,10,10,10,10,10,10,10,10,10,10,10,10,10,10,10,10,10,10,10,10,10,10,10,10,10,10,10,10,10,10,10,10,10,10,10,10,10,10,10,10,10,10,10,10,10,10,10,12,8,10,10,10,10,10,10,10,10,10,10,10,10,10,10,10,10,10,10,10,10,10,10,10,10,10,10,10,10,10,10,10,10,10,10,10,10,10,10,10,10,10,10,10,10,10,10,10,11,9,10,10,10,10,10,10,10,10,11,9,10,10,10,11,10,9,10,10,10,10,10,10,11,10,10,10,9,11,9,11,9,10,11,9,10,10,10,10,11,9,11,9,11,10,10,10,10,10,10,10,10,10,10,10,10,10,10,10,10,10,10,10,10,12,8,10,10,10,10,10,10,10,10,10,10,10,10,10,10,10,10,10,10,10,10,10,10,10,10,10,10,10,10,10,10,10,10,10,10,10,10,10,10,10,10,10,10,10,10,10,10,10,10,10,10,10,10,10,10,10,10,10,10,10,10,10,10,10,10,10,10,10,10,10,10,10,10,10,10,10,10,10,10,10,10,10,10,10,10,10,10,10,11,9,10,10,10,10,10,10,10,10,10,10,10,10,10,10,10,10,10,10,10,10,10,11,9,10,11,9,10,10,10,10,10,10,10,10,11,10,9,11,10,9,10,10,11,10,10,10]",
        "number_of_frames": 800,
        "canvas_width": 2560,
        "canvas_height": 1440,
        "blanking": false,
        "staircase": false,
        "trial_type": "disks",
        "trial_index": 3,
        "time_elapsed": 22126,
        "internal_node_id": "0.0-3.0-0.0"
    },
    {
        "animation_sequence": "[{\"stimulus\":{\"id\":\"red-dot\",\"x\":424,\"y\":424,\"width\":112,\"height\":112},\"time\":1001},{\"stimulus\":{\"id\":\"green-dot\",\"x\":424,\"y\":424,\"width\":112,\"height\":112},\"time\":2003}]",
        "responses": "[]",
        "trial_type": "animation",
        "trial_index": 4,
        "time_elapsed": 25130,
        "internal_node_id": "0.0-4.0"
    },
    {
        "rt": -1,
        "key_press": -1,
        "correct": false,
        "id": "disk-condition-1-1",
        "choices": [],
        "correct_choice": [
            "R"
        ],
        "trial_duration": 8000,
        "response_ends_trial": true,
        "central_intensity": 0.9,
        "surround_intensity": 0.45,
        "central_radius": 18.5,
        "surround_radius": 37,
        "ratio": 2,
        "speed": 1124,
        "direction": 1,
        "field_spacing": 236,
        "background_color": "gray",
        "frame_rate": 9.9975,
        "frame_rate_array": "[0,10,5,32,0,7,10,10,10,10,10,10,10,10,10,10,10,10,11,9,11,9,10,10,10,10,10,10,10,10,10,10,10,10,10,10,10,10,10,10,10,10,10,10,10,10,10,10,10,10,10,10,11,10,9,10,11,9,11,9,11,9,10,10,10,10,10,10,10,11,10,9,10,10,10,11,10,9,11,9,11,10,10,10,10,10,10,10,10,10,10,10,10,10,10,10,10,10,10,10,10,10,10,10,10,10,10,10,10,10,10,10,10,10,10,10,10,10,10,10,10,10,10,10,10,10,10,10,10,10,10,10,10,10,10,10,10,10,10,10,10,10,10,10,10,10,10,10,10,10,10,10,10,10,10,10,10,10,10,10,10,10,10,10,11,9,10,10,10,10,10,10,10,10,10,10,10,10,10,10,10,10,10,10,10,10,10,10,10,10,10,10,10,10,10,10,10,10,10,10,10,10,10,10,10,10,10,10,10,10,10,10,10,10,10,10,10,10,10,10,10,10,10,11,9,10,10,10,10,11,9,11,9,10,11,9,10,10,10,11,10,10,10,9,11,10,10,10,10,10,10,10,10,10,10,10,10,10,10,10,10,10,10,10,10,10,10,10,10,10,10,10,10,10,10,10,10,10,10,10,10,10,10,10,10,10,10,10,10,10,10,10,10,10,10,10,10,10,10,10,10,10,10,10,10,10,10,10,10,10,10,10,10,10,10,10,10,10,10,10,10,10,10,10,10,10,10,10,10,10,10,10,10,10,10,10,10,10,10,10,10,10,10,11,9,10,10,10,10,10,10,10,10,11,9,10,10,10,10,10,10,10,10,10,10,10,10,10,10,10,10,10,10,10,10,10,10,10,10,10,10,10,10,10,10,10,10,11,9,10,10,10,10,10,10,10,10,10,10,10,10,10,10,10,10,11,9,10,10,10,10,10,10,10,10,10,11,9,11,10,10,9,10,10,10,11,10,9,10,10,10,10,11,11,9,9,10,10,11,10,10,9,11,10,10,10,10,10,10,10,10,10,10,10,10,10,10,10,10,10,10,10,10,10,10,10,10,10,10,10,10,10,10,10,10,10,10,10,10,10,10,10,10,10,10,10,10,10,10,10,10,10,10,10,10,10,10,10,10,10,10,10,10,10,10,10,10,10,10,10,10,10,10,10,10,10,10,10,10,10,10,10,10,10,10,10,10,10,10,10,10,10,10,10,10,10,10,10,10,10,10,10,10,10,10,10,10,10,10,10,10,10,10,11,9,10,10,10,10,11,9,10,10,10,10,10,10,10,10,10,10,10,10,10,10,10,10,10,10,10,10,10,10,10,10,10,10,10,10,10,10,10,10,10,10,10,10,11,9,10,10,10,10,11,9,10,10,10,11,10,10,10,10,10,9,11,9,11,9,11,10,9,10,11,10,10,10,10,10,10,10,10,10,10,10,10,10,10,10,10,10,10,10,10,10,10,10,10,10,10,10,10,10,10,10,10,10,10,10,10,11,9,10,10,10,10,10,10,10,10,10,10,10,10,10,10,10,10,10,10,10,10,10,10,10,10,10,10,10,10,10,10,10,10,10,10,10,10,10,10,10,10,10,10,10,10,10,10,10,10,10,10,10,10,10,10,10,10,10,10,10,10,10,10,10,10,10,10,10,10,10,10,10,10,10,10,10,10,10,10,10,10,10,10,10,10,10,10,10,10,10,10,10,10,10,10,11,9,10,10,10,10,10,11,9,10,10,10,10,10,10,10,11,9,10,10,11,9,10,11,9,10,10,11,10,9,11,10,9,11,10,10,10,10,10,10,10,9,10,10]",
        "number_of_frames": 800,
        "canvas_width": 2560,
        "canvas_height": 1440,
        "blanking": false,
        "staircase": false,
        "trial_type": "disks",
        "trial_index": 5,
        "time_elapsed": 33175,
        "internal_node_id": "0.0-5.0-0.0"
    },
    {
        "animation_sequence": "[{\"stimulus\":{\"id\":\"red-dot\",\"x\":424,\"y\":424,\"width\":112,\"height\":112},\"time\":1002},{\"stimulus\":{\"id\":\"green-dot\",\"x\":424,\"y\":424,\"width\":112,\"height\":112},\"time\":2002}]",
        "responses": "[]",
        "trial_type": "animation",
        "trial_index": 6,
        "time_elapsed": 36179,
        "internal_node_id": "0.0-6.0"
    },
    {
        "rt": -1,
        "key_press": -1,
        "correct": false,
        "id": "disk-condition-1-1",
        "choices": [],
        "correct_choice": [
            "R"
        ],
        "trial_duration": 8000,
        "response_ends_trial": true,
        "central_intensity": 0.9,
        "surround_intensity": 0.45,
        "central_radius": 18.5,
        "surround_radius": 37,
        "ratio": 2,
        "speed": 1124,
        "direction": 1,
        "field_spacing": 236,
        "background_color": "gray",
        "frame_rate": 10.057861635220126,
        "frame_rate_array": "[0,11,2,28,1,9,10,10,10,10,10,10,10,10,10,10,10,10,10,10,11,9,11,9,10,10,10,11,9,11,9,11,10,9,10,10,10,10,11,10,9,10,10,10,10,10,10,11,9,10,11,9,11,9,10,10,10,11,9,10,11,10,10,9,11,10,10,10,10,10,10,10,10,10,10,10,10,10,10,10,10,10,10,10,10,10,10,10,10,10,10,10,10,10,10,10,10,10,10,10,10,10,10,10,10,10,10,10,10,10,10,10,10,10,10,10,10,10,10,10,10,10,10,10,10,10,10,10,10,10,10,10,10,10,10,10,10,10,10,10,10,10,10,10,10,10,10,10,10,10,10,10,10,10,10,10,10,10,10,10,11,9,10,10,10,10,10,10,10,10,10,10,10,10,10,10,10,10,10,10,10,10,11,9,10,11,9,10,10,10,10,10,10,10,10,11,9,10,11,10,9,10,10,10,10,10,13,7,10,10,10,10,10,11,9,11,10,9,10,10,10,11,10,10,9,11,10,9,10,10,10,10,12,8,11,10,9,11,9,11,9,10,10,10,11,10,10,10,10,10,10,10,10,10,10,10,10,10,10,10,10,10,10,10,10,10,10,10,10,10,10,10,10,10,10,10,10,10,10,10,10,10,10,10,10,10,10,10,10,10,10,10,10,10,10,10,10,10,66,4,10,10,10,10,10,10,10,10,10,10,10,10,10,10,10,10,10,10,10,10,10,10,10,10,10,10,10,11,9,10,10,10,10,10,10,10,10,10,10,10,10,10,10,10,10,11,9,11,9,10,10,10,10,10,10,10,10,10,10,10,10,10,10,10,10,10,10,10,10,10,10,10,10,10,10,10,10,10,11,9,10,10,10,10,10,10,10,10,10,10,11,10,9,11,9,10,10,10,10,10,10,11,10,9,10,10,11,9,10,10,10,10,11,10,10,9,11,9,10,10,11,9,10,11,10,9,11,10,10,10,10,10,10,10,10,10,10,10,10,10,10,10,10,10,10,10,10,10,10,10,10,10,10,10,10,10,10,10,10,10,10,10,10,10,10,10,10,10,10,10,10,10,10,10,10,10,10,10,10,10,10,10,10,10,10,10,10,10,10,10,10,10,10,10,10,10,10,10,10,10,10,10,10,10,10,10,10,11,9,10,10,10,10,10,10,10,10,10,10,10,10,10,10,10,11,9,10,10,10,10,10,10,10,10,11,9,10,10,10,10,10,10,10,10,11,9,10,10,10,10,10,10,10,10,10,10,10,10,10,10,10,10,10,10,10,10,10,10,10,11,9,10,10,11,9,11,9,11,9,11,9,10,10,10,10,10,10,10,10,10,11,9,10,10,10,11,9,11,9,10,10,10,11,10,10,9,11,10,10,10,10,10,10,10,10,10,10,10,10,10,10,10,10,10,10,10,10,10,10,10,10,10,10,10,10,10,10,10,10,10,10,10,10,10,10,10,10,10,10,10,10,10,10,10,10,10,10,10,10,10,10,10,10,10,10,10,10,10,10,10,10,10,10,10,10,10,10,10,10,10,10,10,10,10,10,10,10,10,10,10,10,10,10,10,10,10,10,10,10,10,10,10,10,10,10,10,11,9,10,10,11,9,10,11,9,10,10,10,10,10,10,10,10,10,10,10,10,10,10,10,10,10,10,10,11,9,10,10,10,10,10,10,10,10,10,10,11,9,10,10,11,9,10,11,9,10,10,10,10,11,9,10,10,11,9,10,10,11,9,11,10,9,11,10,10,9,10,11,10,10,9,11,10,10,11,9,10,10,9,11,10,10,10,10,10]",
        "number_of_frames": 795,
        "canvas_width": 2560,
        "canvas_height": 1440,
        "blanking": false,
        "staircase": false,
        "trial_type": "disks",
        "trial_index": 7,
        "time_elapsed": 44225,
        "internal_node_id": "0.0-7.0-0.0"
    },
    {
        "animation_sequence": "[{\"stimulus\":{\"id\":\"red-dot\",\"x\":424,\"y\":424,\"width\":112,\"height\":112},\"time\":1002},{\"stimulus\":{\"id\":\"green-dot\",\"x\":424,\"y\":424,\"width\":112,\"height\":112},\"time\":2003}]",
        "responses": "[]",
        "trial_type": "animation",
        "trial_index": 8,
        "time_elapsed": 47231,
        "internal_node_id": "0.0-8.0"
    },
    {
        "rt": -1,
        "key_press": -1,
        "correct": false,
        "id": "disk-condition-1-1",
        "choices": [],
        "correct_choice": [
            "R"
        ],
        "trial_duration": 8000,
        "response_ends_trial": true,
        "central_intensity": 0.9,
        "surround_intensity": 0.45,
        "central_radius": 18.5,
        "surround_radius": 37,
        "ratio": 2,
        "speed": 1124,
        "direction": 1,
        "field_spacing": 236,
        "background_color": "gray",
        "frame_rate": 9.990012484394507,
        "frame_rate_array": "[1,12,5,25,1,4,10,9,10,10,10,11,9,10,10,11,9,10,10,10,10,10,10,10,11,10,9,10,11,9,10,10,10,10,11,9,10,10,10,10,10,10,11,9,11,9,11,10,10,10,10,10,10,10,10,10,10,10,10,10,10,10,10,10,10,10,10,10,10,10,10,10,10,10,10,10,10,10,10,10,10,10,10,10,10,10,10,10,10,10,10,10,10,10,10,10,10,10,10,10,10,10,10,10,10,10,10,10,10,10,10,10,10,10,10,10,10,10,10,10,10,10,10,10,10,10,10,10,10,10,10,10,10,10,10,10,10,10,10,10,10,10,10,10,10,10,10,10,10,10,10,10,10,10,10,10,10,10,10,10,10,10,10,10,10,10,10,10,10,10,10,10,10,10,10,10,13,7,10,10,10,10,10,10,11,9,10,10,10,10,10,10,10,11,10,9,10,11,9,11,9,10,10,10,10,10,10,11,10,10,10,9,10,10,10,10,11,10,9,10,10,10,11,9,11,10,10,10,10,10,10,10,10,10,10,10,10,10,10,10,10,10,10,10,10,10,10,10,10,10,10,10,10,10,10,10,10,10,10,10,10,10,10,10,10,10,10,10,10,10,10,10,10,10,10,10,10,11,9,10,10,10,10,10,10,10,10,10,10,10,10,10,10,10,10,10,10,10,10,10,10,10,10,10,10,10,10,10,10,10,10,10,10,10,10,10,10,10,10,10,10,10,10,10,10,10,10,10,10,11,9,10,10,10,10,10,10,11,9,10,10,10,11,9,10,10,10,10,10,10,10,10,10,10,10,10,10,10,11,9,10,10,10,10,10,10,10,10,10,10,10,10,10,10,11,10,9,11,10,9,11,9,10,10,10,10,10,10,10,10,10,10,10,11,10,9,11,10,9,10,11,10,10,10,9,10,11,10,10,10,10,10,10,10,10,10,10,10,10,10,10,10,10,10,10,10,10,10,10,10,10,10,10,10,10,10,10,10,10,10,10,10,10,10,10,10,10,11,9,10,10,10,10,10,10,10,10,10,10,10,10,10,10,10,10,10,10,10,10,10,10,10,10,10,10,10,10,10,10,10,10,10,10,10,10,10,10,10,10,10,10,10,10,10,10,10,10,10,10,10,10,10,10,10,10,10,10,10,10,10,10,10,10,10,10,10,10,10,10,10,10,10,10,10,10,10,10,10,10,10,10,10,10,11,9,10,10,10,10,10,10,10,10,10,10,10,10,10,10,10,10,10,10,11,9,10,10,11,9,10,10,10,10,10,10,10,10,10,10,10,11,10,9,11,10,10,10,9,10,10,10,11,10,10,10,10,10,10,10,10,10,10,10,10,10,10,10,10,10,10,10,10,10,10,10,10,10,11,9,10,10,10,10,10,10,10,10,10,10,10,10,10,10,10,10,10,10,10,10,10,10,10,10,10,10,10,10,10,10,10,10,10,10,10,10,10,10,10,10,10,10,10,10,10,10,10,10,10,10,10,10,10,10,10,10,10,10,10,10,10,10,10,10,10,10,10,10,10,10,10,10,10,10,10,10,12,8,10,10,10,10,10,10,10,10,10,10,10,10,10,10,10,10,10,10,10,10,10,10,10,10,10,10,10,10,10,10,12,8,10,10,10,12,8,10,10,10,10,10,10,10,11,9,10,10,10,10,11,9,10,10,10,10,10,10,10,10,10,10,11,10,9,10,10,10,10,10,10,10,10,11,9,10,10,10,11,10,10,10,9,11,10,10,10,10,10,10,10,10,10,10,10,10,10,10,10,10,10,10,10,10,10,10,10,10,10,10,10,10,10,10]",
        "number_of_frames": 801,
        "canvas_width": 2560,
        "canvas_height": 1440,
        "blanking": false,
        "staircase": false,
        "trial_type": "disks",
        "trial_index": 9,
        "time_elapsed": 55275,
        "internal_node_id": "0.0-9.0-0.0"
    },
    {
        "animation_sequence": "[{\"stimulus\":{\"id\":\"red-dot\",\"x\":424,\"y\":424,\"width\":112,\"height\":112},\"time\":1003},{\"stimulus\":{\"id\":\"green-dot\",\"x\":424,\"y\":424,\"width\":112,\"height\":112},\"time\":2002}]",
        "responses": "[]",
        "trial_type": "animation",
        "trial_index": 10,
        "time_elapsed": 58278,
        "internal_node_id": "0.0-10.0"
    },
    {
        "rt": -1,
        "key_press": -1,
        "correct": false,
        "id": "disk-condition-1-1",
        "choices": [],
        "correct_choice": [
            "R"
        ],
        "trial_duration": 8000,
        "response_ends_trial": true,
        "central_intensity": 0.9,
        "surround_intensity": 0.45,
        "central_radius": 18.5,
        "surround_radius": 37,
        "ratio": 2,
        "speed": 1124,
        "direction": 1,
        "field_spacing": 236,
        "background_color": "gray",
        "frame_rate": 10.231457800511508,
        "frame_rate_array": "[0,11,30,1,5,9,10,10,10,10,10,10,10,10,10,10,11,9,10,11,9,11,9,10,10,11,10,9,11,10,9,10,11,10,10,11,9,10,10,10,10,10,10,11,9,10,10,10,10,10,10,10,10,10,10,10,10,10,10,10,10,10,10,10,10,10,10,10,10,10,10,10,10,10,10,10,10,10,10,10,10,10,10,10,10,10,10,10,10,10,10,10,10,10,10,10,10,10,10,10,10,10,10,10,10,10,10,10,10,10,10,10,10,10,10,10,10,10,10,10,10,10,10,10,10,10,10,10,10,10,10,11,9,10,10,10,10,10,10,10,10,10,10,10,10,10,10,10,10,10,10,10,10,10,10,11,9,11,9,11,9,10,10,10,10,11,9,10,10,10,10,10,10,10,10,10,10,11,9,10,10,10,10,10,10,10,10,10,11,9,11,10,10,10,10,9,11,9,11,9,10,10,11,9,10,10,10,10,11,9,10,10,10,11,9,11,10,10,10,10,10,10,10,10,10,10,10,10,10,10,10,10,10,10,10,10,10,10,10,10,10,10,10,10,10,10,10,10,10,10,10,10,10,10,10,10,10,10,10,10,10,10,10,10,10,10,10,10,10,10,10,10,10,10,10,10,10,10,10,10,10,10,10,10,10,10,10,10,11,9,10,10,10,10,10,10,78,2,22,8,11,9,11,9,10,10,10,10,10,11,9,11,9,10,10,10,10,10,11,10,9,11,9,11,10,10,9,10,11,10,10,10,10,10,10,10,9,10,10,10,10,10,10,10,10,10,10,10,10,10,10,11,9,10,10,11,9,10,10,10,11,9,10,10,10,10,10,10,11,9,11,10,10,10,9,11,9,10,10,11,10,10,10,10,10,10,10,10,10,10,10,10,10,10,10,10,10,10,10,10,10,10,10,10,10,10,10,10,10,10,10,10,10,10,10,10,10,10,10,10,10,10,10,10,10,10,10,10,10,10,10,12,8,10,10,10,10,10,10,10,10,10,10,10,10,10,10,10,10,10,10,10,10,10,10,10,10,10,10,10,10,10,10,10,10,10,10,10,10,10,10,10,10,10,10,10,10,10,10,10,10,11,9,10,10,10,10,10,10,10,10,10,10,10,10,10,10,11,9,10,10,10,10,10,10,10,10,10,10,10,10,11,9,10,10,10,10,10,11,10,9,11,9,11,9,11,9,10,11,9,10,10,10,10,10,10,10,10,10,10,10,11,9,10,10,10,10,10,11,9,11,10,9,10,10,10,11,10,10,10,9,11,10,10,10,10,10,10,10,10,10,10,10,10,10,10,10,10,10,10,10,10,10,10,10,10,10,10,10,10,10,11,9,10,10,10,10,10,10,10,10,10,10,10,10,10,10,10,10,10,10,10,10,10,10,10,10,10,10,10,10,10,10,10,10,10,10,10,10,10,10,10,10,10,10,10,10,10,10,10,10,10,10,10,10,10,10,10,10,10,10,10,10,10,10,10,10,10,10,10,10,10,10,10,10,10,10,10,10,10,10,10,10,10,10,10,10,10,10,10,10,10,10,10,10,10,10,10,10,10,10,11,9,10,10,10,10,11,10,9,10,10,10,10,10,11,9,10,10,10,10,10,10,10,11,10,9,10,10,10,10,10,11,10,9,10,11,9,10,10,11,9,11,10,10,9,11,10,9,10,10,11,10,10,10,10,10,10,10,10,10,10,10,10,10,10,10,10,10,10,10,11,9,10,10,10,10,10,10,124,6,10,10,10,10,10,10,10,10,10,10,10]",
        "number_of_frames": 782,
        "canvas_width": 2560,
        "canvas_height": 1440,
        "blanking": false,
        "staircase": false,
        "trial_type": "disks",
        "trial_index": 11,
        "time_elapsed": 66321,
        "internal_node_id": "0.0-11.0-0.0"
    },
    {
        "animation_sequence": "[{\"stimulus\":{\"id\":\"red-dot\",\"x\":424,\"y\":424,\"width\":112,\"height\":112},\"time\":1002},{\"stimulus\":{\"id\":\"green-dot\",\"x\":424,\"y\":424,\"width\":112,\"height\":112},\"time\":2001}]",
        "responses": "[]",
        "trial_type": "animation",
        "trial_index": 12,
        "time_elapsed": 69324,
        "internal_node_id": "0.0-12.0"
    },
    {
        "rt": -1,
        "key_press": -1,
        "correct": false,
        "id": "disk-condition-1-1",
        "choices": [],
        "correct_choice": [
            "R"
        ],
        "trial_duration": 8000,
        "response_ends_trial": true,
        "central_intensity": 0.9,
        "surround_intensity": 0.45,
        "central_radius": 18.5,
        "surround_radius": 37,
        "ratio": 2,
        "speed": 1124,
        "direction": 1,
        "field_spacing": 236,
        "background_color": "gray",
        "frame_rate": 10.075566750629722,
        "frame_rate_array": "[0,12,4,27,1,1,11,9,11,10,10,10,10,10,10,10,10,10,10,10,10,10,10,10,10,10,10,10,10,10,10,10,10,10,10,10,10,10,10,10,10,10,10,10,10,10,10,10,10,10,10,10,10,81,9,10,10,10,10,10,10,10,10,10,10,10,10,10,10,10,10,10,10,10,10,10,10,10,10,10,10,10,10,10,11,9,10,10,10,10,10,10,10,10,10,10,10,10,10,10,10,10,10,10,10,10,10,10,10,10,10,10,10,10,10,10,10,10,10,10,10,10,10,10,10,10,10,10,10,10,11,9,10,10,10,10,10,10,10,10,10,10,10,10,11,9,10,10,10,10,10,10,10,10,10,10,10,11,10,9,10,10,10,10,10,10,10,10,10,10,10,11,9,10,11,9,10,10,10,10,11,10,10,10,10,10,10,10,10,10,10,10,10,10,10,10,10,10,10,10,10,10,10,10,10,10,10,10,10,10,10,10,10,10,10,10,10,10,10,10,10,10,10,10,10,10,10,10,10,10,10,10,10,10,10,10,10,10,10,10,10,10,10,10,10,10,10,10,10,10,10,10,10,10,10,10,10,10,10,10,10,10,10,10,10,10,10,10,10,10,10,10,10,10,10,10,10,10,10,10,10,10,10,10,10,10,10,10,10,10,10,10,10,10,10,10,10,10,10,10,10,10,10,11,10,9,10,10,10,10,10,11,10,9,11,9,10,11,10,10,10,10,10,10,10,10,10,10,10,10,10,10,10,10,10,10,10,10,9,11,9,10,10,10,10,10,10,10,10,10,10,10,11,10,10,9,10,10,10,11,10,10,9,11,10,10,10,10,10,10,10,10,10,10,10,10,10,10,10,10,10,10,10,10,10,10,10,10,10,10,10,10,10,10,10,10,10,10,10,10,10,10,10,10,10,10,10,10,10,10,10,10,10,10,10,10,10,10,10,10,11,9,10,10,10,10,17,3,10,10,10,10,10,10,10,10,10,10,10,10,10,10,10,10,10,10,10,10,10,10,10,10,10,10,10,10,10,10,12,8,10,10,10,10,10,10,10,10,10,10,10,10,10,10,10,10,10,10,10,10,10,10,10,10,11,9,10,11,9,11,9,10,10,10,10,10,10,10,10,10,10,10,10,10,10,11,9,10,10,11,9,10,10,10,11,10,9,10,11,9,10,10,10,10,11,9,10,10,10,11,9,10,11,9,10,11,10,10,10,9,10,11,10,9,11,10,10,10,10,10,10,10,10,10,10,10,10,10,11,9,10,10,10,10,10,10,10,10,10,10,10,10,10,10,10,10,10,10,10,10,10,10,10,10,10,10,10,10,10,10,10,10,10,10,10,10,10,10,10,10,10,10,10,10,10,10,10,10,10,10,10,10,10,10,10,10,10,10,10,10,10,10,10,10,10,10,10,10,10,10,10,10,10,11,9,10,10,10,10,10,10,10,10,10,10,10,10,10,10,10,10,10,10,10,10,10,10,10,10,10,11,9,10,10,10,10,10,10,10,10,10,10,10,10,10,10,10,11,9,10,10,10,11,9,11,9,10,11,9,10,10,10,10,10,10,10,10,12,9,9,10,10,10,10,10,10,11,10,10,9,10,11,10,9,11,9,10,11,9,10,11,10,9,11,10,9,11,10,10,10,10,10,10,10,10,10,10,10,10,10,10,10,10,10,10,10,10,10,10,10,10,10,10,10,10,10,10,10,10,10,10,10,10,10,10,10,10,10,10,10,10,10,10,10,10,10,10,10,10,10,10,10,10,10,10,10,10,10,10,10,10,10,10,10]",
        "number_of_frames": 794,
        "canvas_width": 2560,
        "canvas_height": 1440,
        "blanking": false,
        "staircase": false,
        "trial_type": "disks",
        "trial_index": 13,
        "time_elapsed": 77368,
        "internal_node_id": "0.0-13.0-0.0"
    }
]