[
    {
        "animation_sequence": "[{\"stimulus\":{\"id\":\"red-dot\",\"x\":424,\"y\":424,\"width\":112,\"height\":112},\"time\":1001},{\"stimulus\":{\"id\":\"green-dot\",\"x\":424,\"y\":424,\"width\":112,\"height\":112},\"time\":2001}]",
        "responses": "[]",
        "trial_type": "animation",
        "trial_index": 0,
        "time_elapsed": 3005,
        "internal_node_id": "0.0-0.0"
    },
    {
        "rt": -1,
        "key_press": -1,
        "correct": false,
        "id": "disk-condition-1-1",
        "choices": [],
        "correct_choice": [
            "R"
        ],
        "trial_duration": 8000,
        "response_ends_trial": true,
        "central_intensity": 0.9,
        "surround_intensity": 0.45,
        "central_radius": 18.5,
        "surround_radius": 37,
        "ratio": 2,
        "speed": 1124,
        "direction": 1,
        "field_spacing": 236,
        "background_color": "gray",
        "frame_rate": 11.952167414050821,
        "frame_rate_array": "[1,9,36,1,5,12,12,12,12,12,12,12,12,12,12,12,12,12,12,11,12,13,11,12,12,12,12,12,12,12,12,12,12,12,12,12,12,12,12,12,12,12,12,12,12,12,12,12,11,13,11,12,12,12,12,12,12,12,12,12,12,12,12,12,12,12,12,12,12,12,12,12,12,12,12,12,12,12,12,12,11,12,12,12,12,12,12,12,12,12,12,12,12,12,12,12,12,12,12,12,12,12,12,12,12,12,12,12,12,12,12,11,12,12,12,12,12,12,12,12,12,12,12,12,12,12,12,12,11,12,12,12,12,12,12,12,12,12,12,12,12,12,12,12,11,13,11,12,12,12,12,12,12,12,12,12,12,12,12,12,12,12,12,12,12,12,12,12,12,12,12,12,12,12,12,12,12,11,12,12,12,12,12,12,12,12,12,12,12,12,12,12,12,12,12,12,12,12,12,12,12,12,12,12,12,12,11,12,12,12,12,12,12,12,12,12,12,12,12,13,11,12,12,12,11,12,12,12,12,12,12,12,12,12,12,12,12,12,12,12,12,11,12,12,12,12,12,12,12,13,11,12,12,12,12,12,12,12,12,12,12,12,12,12,12,12,12,12,12,12,12,11,12,12,12,12,12,12,12,12,12,12,12,12,12,12,12,12,12,12,12,12,12,12,12,12,12,12,12,12,12,12,11,12,12,12,12,12,12,12,12,12,12,12,12,12,12,12,12,12,12,12,12,12,12,12,12,12,12,12,12,12,12,12,12,11,12,12,12,13,11,12,12,12,12,12,12,12,12,12,12,12,12,12,12,12,12,12,11,12,12,12,12,12,12,12,12,12,12,12,12,12,12,12,12,12,12,12,12,12,12,12,12,12,12,12,12,12,12,12,12,11,12,12,12,12,12,12,12,12,12,12,12,12,12,12,12,12,12,12,12,12,12,12,12,12,12,12,12,12,11,12,12,12,12,12,12,12,12,12,12,12,12,12,12,12,12,12,12,12,12,12,12,12,12,12,12,12,12,12,12,11,12,12,12,12,12,12,12,12,12,12,12,12,12,12,12,12,12,12,12,12,12,12,12,12,12,12,12,12,12,11,12,12,12,12,13,11,12,12,12,12,12,12,12,12,12,12,12,12,12,12,12,12,12,12,12,12,12,12,12,12,12,12,12,11,12,12,12,12,12,12,12,12,12,12,12,12,12,12,12,12,12,12,12,12,12,12,12,12,12,12,12,12,12,11,12,12,12,12,12,13,11,12,12,12,12,12,12,12,12,12,12,12,12,12,12,12,12,12,12,12,12,12,12,11,12,12,12,12,12,11,12,12,12,12,12,12,12,12,12,12,12,12,12,12,12,12,12,12,12,12,12,12,12,12,12,12,12,12,11,13,11,12,12,12,12,12,12,12,12,12,12,12,12,12,12,12,12,12,12,12,12,12,12,12,12,12,12,12,11,12,12,12,12,12,12,12,12,12,12,12,12,12,12,12,12,12,12,12,12,12,12,12,12,12,12,12,12]",
        "number_of_frames": 669,
        "canvas_width": 2560,
        "canvas_height": 1440,
        "blanking": false,
        "staircase": false,
        "trial_type": "disks",
        "trial_index": 1,
        "time_elapsed": 11087,
        "internal_node_id": "0.0-1.0-0.0"
    },
    {
        "animation_sequence": "[{\"stimulus\":{\"id\":\"red-dot\",\"x\":424,\"y\":424,\"width\":112,\"height\":112},\"time\":1001},{\"stimulus\":{\"id\":\"green-dot\",\"x\":424,\"y\":424,\"width\":112,\"height\":112},\"time\":2002}]",
        "responses": "[]",
        "trial_type": "animation",
        "trial_index": 2,
        "time_elapsed": 14090,
        "internal_node_id": "0.0-2.0"
    },
    {
        "rt": -1,
        "key_press": -1,
        "correct": false,
        "id": "disk-condition-1-1",
        "choices": [],
        "correct_choice": [
            "R"
        ],
        "trial_duration": 8000,
        "response_ends_trial": true,
        "central_intensity": 0.9,
        "surround_intensity": 0.45,
        "central_radius": 18.5,
        "surround_radius": 37,
        "ratio": 2,
        "speed": 1124,
        "direction": 1,
        "field_spacing": 236,
        "background_color": "gray",
        "frame_rate": 11.9150521609538,
        "frame_rate_array": "[1,8,3,10,14,11,12,13,10,12,12,12,12,12,12,12,12,12,12,12,12,12,12,12,11,12,12,12,12,12,12,12,12,12,12,11,12,12,12,12,12,12,12,12,12,12,12,12,12,12,12,11,12,12,12,12,12,12,12,12,12,12,12,12,12,12,12,12,12,12,12,12,12,12,12,12,12,12,12,12,12,12,11,12,12,12,12,12,12,12,12,12,12,12,12,12,12,12,12,12,12,12,12,12,12,12,12,12,12,12,12,12,12,12,11,13,11,12,12,12,12,12,12,12,12,12,12,12,12,12,12,12,12,12,12,12,12,12,12,12,12,12,11,13,12,11,12,12,12,12,12,12,12,12,12,12,12,12,12,11,12,12,12,12,11,12,12,12,13,11,12,12,12,12,12,12,11,12,12,12,12,12,12,12,12,12,12,12,11,13,11,13,11,12,12,12,12,12,12,12,12,12,12,12,12,12,12,12,12,12,12,12,12,12,12,12,12,12,12,12,12,12,12,12,12,11,12,13,11,12,12,12,12,12,12,12,12,12,12,12,12,12,12,12,11,12,12,12,12,12,12,12,12,12,12,12,12,12,12,11,13,12,12,12,11,12,12,12,12,12,12,12,12,12,12,12,12,12,12,12,12,12,12,12,12,12,12,12,12,12,12,11,12,12,12,12,12,12,12,12,12,12,11,12,12,12,12,12,12,12,12,11,12,12,12,12,12,12,12,12,12,12,12,12,12,12,12,12,12,12,12,11,12,13,11,12,12,12,12,12,12,12,12,12,12,12,12,12,12,12,12,12,12,12,12,12,12,12,12,12,12,12,12,11,13,11,12,12,12,12,12,12,12,12,12,12,12,12,12,12,12,12,12,12,12,12,12,11,12,12,12,12,12,12,12,12,12,12,12,12,12,11,12,12,12,12,12,12,13,11,12,12,12,12,12,12,12,12,12,12,11,12,13,11,12,12,12,12,12,11,13,11,12,12,12,12,12,12,12,12,12,12,12,12,12,11,12,12,12,12,12,12,12,12,12,12,12,12,12,12,12,12,12,12,12,12,12,12,12,12,12,12,12,12,12,12,11,13,12,11,12,12,12,12,12,12,12,19,5,12,12,12,12,12,12,12,12,12,12,12,12,12,12,12,12,12,12,11,13,11,12,12,12,12,12,12,12,12,12,12,12,12,12,12,12,12,12,12,12,12,13,11,12,12,12,12,12,12,12,11,12,13,11,12,12,12,12,12,12,12,12,12,12,12,12,12,11,12,12,12,12,12,12,12,12,12,12,12,12,12,12,12,12,12,12,12,12,12,12,12,12,12,12,12,12,12,12,11,12,12,12,12,12,12,12,12,12,12,12,12,12,12,12,12,12,12,12,12,12,12,12,12,12,12,12,12,12,12,12,11,13,11,12,12,12,12,12,12,12,12,12,12,12,12,12,12,12,12,12,12,12,12,12,12,12,12,12,12,12,11,12,12,12,13,11,12,12,12,12,12,12,12,12,12,12,11,12,12,12,12,12]",
        "number_of_frames": 671,
        "canvas_width": 2560,
        "canvas_height": 1440,
        "blanking": false,
        "staircase": false,
        "trial_type": "disks",
        "trial_index": 3,
        "time_elapsed": 22142,
        "internal_node_id": "0.0-3.0-0.0"
    },
    {
        "animation_sequence": "[{\"stimulus\":{\"id\":\"red-dot\",\"x\":424,\"y\":424,\"width\":112,\"height\":112},\"time\":1001},{\"stimulus\":{\"id\":\"green-dot\",\"x\":424,\"y\":424,\"width\":112,\"height\":112},\"time\":2001}]",
        "responses": "[]",
        "trial_type": "animation",
        "trial_index": 4,
        "time_elapsed": 25145,
        "internal_node_id": "0.0-4.0"
    },
    {
        "rt": -1,
        "key_press": -1,
        "correct": false,
        "id": "disk-condition-1-1",
        "choices": [],
        "correct_choice": [
            "R"
        ],
        "trial_duration": 8000,
        "response_ends_trial": true,
        "central_intensity": 0.9,
        "surround_intensity": 0.45,
        "central_radius": 18.5,
        "surround_radius": 37,
        "ratio": 2,
        "speed": 1124,
        "direction": 1,
        "field_spacing": 236,
        "background_color": "gray",
        "frame_rate": 11.947683109118087,
        "frame_rate_array": "[1,18,3,19,4,12,12,12,12,12,12,12,12,12,12,12,12,12,12,12,12,12,12,12,12,12,12,12,12,12,12,12,11,12,12,12,12,13,11,12,14,10,12,12,12,12,12,12,12,12,12,12,12,12,12,12,12,12,12,12,12,12,12,11,13,12,11,13,11,12,12,12,12,12,12,12,12,12,12,12,12,12,12,12,12,12,12,12,12,12,12,12,12,12,11,12,13,11,12,12,12,12,12,12,12,12,12,12,12,12,12,12,12,12,12,12,12,12,12,12,12,12,11,12,12,13,11,12,12,12,12,12,12,12,12,12,12,12,12,12,12,12,12,12,12,12,12,12,12,12,12,12,11,12,12,12,12,13,11,12,12,12,12,12,12,12,12,12,12,12,12,12,12,12,12,12,12,12,12,12,12,12,12,12,11,12,12,12,12,12,12,12,12,12,12,12,12,12,12,12,12,12,12,12,12,12,12,12,12,12,12,12,12,12,12,12,11,12,13,11,12,12,12,12,12,12,12,12,12,12,12,12,12,12,12,11,12,12,12,12,12,12,12,12,12,12,12,12,12,12,12,12,12,12,12,12,12,12,12,12,12,12,12,12,11,12,12,12,12,12,12,12,12,12,12,12,12,12,12,12,12,12,12,12,12,12,12,12,12,12,12,12,12,11,12,12,12,12,12,13,11,12,12,12,12,12,12,12,12,12,12,12,12,12,12,12,12,12,12,12,12,12,12,12,12,11,12,12,12,12,12,12,12,12,12,12,12,12,12,12,12,12,12,12,12,12,12,12,12,12,12,12,12,12,12,12,12,11,12,12,12,12,12,12,12,12,12,12,12,12,12,12,12,12,12,12,12,12,12,12,12,12,12,12,12,12,12,12,12,11,12,12,12,12,12,12,12,12,12,12,12,12,12,12,16,11,12,12,12,12,12,12,12,12,12,12,12,11,12,12,12,12,12,12,12,12,12,12,12,12,12,12,12,12,12,12,12,12,12,12,12,12,12,12,12,12,11,12,12,12,12,12,12,12,12,12,12,12,12,12,12,12,12,11,12,12,12,12,12,12,12,12,12,12,12,12,12,12,12,12,12,12,12,12,12,12,12,12,12,12,12,12,12,12,12,11,12,12,12,12,12,12,12,12,12,12,12,12,12,12,12,12,12,12,12,12,12,12,12,12,12,12,12,12,12,11,12,12,12,12,12,12,12,12,12,12,12,12,12,12,12,12,12,12,12,12,12,12,12,12,12,12,12,12,12,11,12,12,12,12,12,12,12,12,12,12,11,12,12,12,12,12,12,12,12,12,12,12,12,12,12,12,11,13,11,13,11,12,12,12,12,12,12,12,12,12,12,12,12,12,12,12,12,12,12,12,12,12,12,12,12,12,12,12,12,11,12,13,11,12,12,12,12,12,12,12,12,12,12,12,12,12,12,12,12,12,12,12,12,12,11,12,12,12,12,12,12,12,12,12,12,12,12,12,12,12,12,12,12,12,12,12,12,12,12,12,12,12,12]",
        "number_of_frames": 669,
        "canvas_width": 2560,
        "canvas_height": 1440,
        "blanking": false,
        "staircase": false,
        "trial_type": "disks",
        "trial_index": 5,
        "time_elapsed": 33202,
        "internal_node_id": "0.0-5.0-0.0"
    },
    {
        "animation_sequence": "[{\"stimulus\":{\"id\":\"red-dot\",\"x\":424,\"y\":424,\"width\":112,\"height\":112},\"time\":1002},{\"stimulus\":{\"id\":\"green-dot\",\"x\":424,\"y\":424,\"width\":112,\"height\":112},\"time\":2001}]",
        "responses": "[]",
        "trial_type": "animation",
        "trial_index": 6,
        "time_elapsed": 36205,
        "internal_node_id": "0.0-6.0"
    },
    {
        "rt": -1,
        "key_press": -1,
        "correct": false,
        "id": "disk-condition-1-1",
        "choices": [],
        "correct_choice": [
            "R"
        ],
        "trial_duration": 8000,
        "response_ends_trial": true,
        "central_intensity": 0.9,
        "surround_intensity": 0.45,
        "central_radius": 18.5,
        "surround_radius": 37,
        "ratio": 2,
        "speed": 1124,
        "direction": 1,
        "field_spacing": 236,
        "background_color": "gray",
        "frame_rate": 11.938805970149254,
        "frame_rate_array": "[1,10,4,37,1,6,12,14,10,12,12,12,12,11,12,12,12,12,12,12,12,12,12,12,12,11,12,12,12,12,12,12,12,12,12,11,13,11,12,13,11,12,12,12,12,12,12,12,12,12,12,12,12,12,12,12,12,12,12,12,12,12,12,12,12,12,12,12,11,12,12,13,11,12,12,12,12,12,12,12,12,12,12,12,12,12,12,12,12,12,12,12,12,12,12,12,12,12,11,12,13,11,12,12,12,13,11,12,12,11,12,12,12,12,12,12,12,13,11,12,12,12,12,12,12,12,12,12,12,12,12,12,12,12,12,12,11,12,12,13,11,12,12,12,12,12,12,12,12,12,12,12,12,12,12,12,12,12,12,12,12,12,12,12,12,12,12,12,12,11,12,12,13,11,12,12,12,12,12,12,12,12,12,12,12,12,12,12,12,12,12,12,12,12,12,12,12,12,12,11,13,12,12,12,12,12,12,12,11,13,11,12,12,12,12,12,12,12,12,12,12,12,12,12,12,12,12,12,12,12,12,12,12,12,12,12,11,13,12,11,13,11,12,12,12,12,12,12,12,12,12,12,11,12,12,12,12,12,12,12,12,12,12,12,12,12,12,12,12,11,13,11,13,11,12,12,12,12,12,12,12,12,12,12,12,12,12,12,12,12,12,12,12,12,12,11,12,12,12,12,12,12,12,12,12,12,12,12,12,12,12,12,12,12,12,12,12,12,12,12,12,12,12,12,12,12,12,11,13,11,12,12,12,12,12,12,12,12,12,12,12,12,12,12,12,12,12,12,12,12,12,12,12,12,12,12,11,13,12,11,12,12,13,11,13,11,12,12,12,12,12,12,12,12,12,12,12,12,11,12,12,12,12,12,12,12,12,12,12,12,12,12,12,12,12,12,12,12,11,12,12,12,12,12,12,12,12,12,12,12,12,12,12,12,12,12,12,12,12,12,12,12,12,12,12,12,12,12,12,11,12,12,12,12,12,12,12,12,12,12,12,12,12,12,12,12,12,12,12,12,12,13,11,12,12,12,12,12,12,11,12,12,13,11,12,12,12,12,12,12,12,12,12,12,12,12,12,12,12,12,12,12,12,12,12,12,12,12,11,12,12,12,12,12,12,12,11,12,12,12,12,12,12,12,12,11,12,12,12,12,12,12,12,12,12,12,11,13,12,11,12,12,12,12,12,12,12,12,12,12,12,12,12,11,12,13,11,12,12,12,12,12,12,12,12,12,12,12,12,12,12,12,12,12,12,12,12,12,12,12,12,12,12,12,12,12,12,11,13,11,12,12,12,12,12,12,12,12,12,12,12,12,12,12,12,12,12,12,12,12,12,12,12,12,12,12,11,12,12,13,11,12,12,12,12,12,12,12,12,12,12,12,12,12,12,12,12,12,12,12,12,12,12,12,12,12,12,12,11,12,12,12,12,12,12,12,12,12,12,12,12,12,12,12,12,12,12,12,12,12,12,12,12,12,12,12,12,12,11,12,12,12,12,12,12,12,12,13,11,12]",
        "number_of_frames": 670,
        "canvas_width": 2560,
        "canvas_height": 1440,
        "blanking": false,
        "staircase": false,
        "trial_type": "disks",
        "trial_index": 7,
        "time_elapsed": 44281,
        "internal_node_id": "0.0-7.0-0.0"
    },
    {
        "animation_sequence": "[{\"stimulus\":{\"id\":\"red-dot\",\"x\":424,\"y\":424,\"width\":112,\"height\":112},\"time\":1002},{\"stimulus\":{\"id\":\"green-dot\",\"x\":424,\"y\":424,\"width\":112,\"height\":112},\"time\":2001}]",
        "responses": "[]",
        "trial_type": "animation",
        "trial_index": 8,
        "time_elapsed": 47284,
        "internal_node_id": "0.0-8.0"
    },
    {
        "rt": -1,
        "key_press": -1,
        "correct": false,
        "id": "disk-condition-1-1",
        "choices": [],
        "correct_choice": [
            "R"
        ],
        "trial_duration": 8000,
        "response_ends_trial": true,
        "central_intensity": 0.9,
        "surround_intensity": 0.45,
        "central_radius": 18.5,
        "surround_radius": 37,
        "ratio": 2,
        "speed": 1124,
        "direction": 1,
        "field_spacing": 236,
        "background_color": "gray",
        "frame_rate": 11.929850746268658,
        "frame_rate_array": "[1,8,22,0,10,12,12,12,12,12,12,12,12,12,12,12,12,12,12,12,12,12,12,12,12,12,12,12,12,12,12,12,12,12,11,12,12,13,11,12,12,12,12,12,12,12,12,12,12,12,12,12,12,12,12,12,12,12,12,12,12,12,12,12,11,13,12,11,12,12,11,12,12,12,12,12,12,12,12,12,12,12,12,12,12,12,12,12,12,12,12,12,12,12,12,12,12,12,12,12,12,11,12,12,12,12,12,12,12,12,12,12,12,12,12,12,12,12,12,12,12,12,12,12,12,12,12,12,12,12,12,11,12,12,12,12,12,12,12,12,12,12,12,12,12,12,12,12,12,12,12,12,12,12,12,12,12,12,12,12,12,12,11,12,12,12,12,12,12,12,12,12,12,12,12,12,12,12,12,12,12,12,12,12,12,12,12,11,12,12,12,12,12,12,12,12,12,12,12,12,12,12,12,12,12,12,12,11,13,11,12,12,12,12,12,12,12,12,12,12,12,12,12,12,12,12,12,12,12,12,12,12,12,12,12,12,12,12,11,12,12,12,12,12,12,12,12,12,12,12,12,12,12,12,12,11,12,12,12,12,12,12,12,11,12,12,12,12,12,12,12,12,12,12,12,12,12,12,12,12,12,12,12,12,12,12,12,12,12,12,12,12,12,11,12,12,12,12,12,12,12,12,12,12,12,12,12,11,12,12,12,12,12,12,12,12,12,12,12,12,12,12,12,12,12,12,12,12,12,12,12,12,12,12,12,12,12,12,12,12,11,12,12,12,12,12,12,12,12,12,12,12,12,13,11,12,12,12,12,12,12,12,12,12,12,12,12,12,12,12,12,11,13,12,11,12,12,12,12,12,12,12,12,12,12,12,12,12,12,12,12,12,12,12,12,12,12,12,12,11,12,12,12,12,12,12,12,12,12,12,13,11,12,12,12,12,12,12,12,12,12,12,12,12,12,12,12,12,12,12,12,11,12,12,12,12,12,12,12,12,12,12,12,12,12,12,12,12,12,12,12,12,12,12,12,12,12,12,12,12,12,12,12,11,12,12,12,12,12,12,12,12,12,12,11,12,12,12,12,12,12,12,12,12,12,12,12,12,12,12,12,12,12,12,12,12,12,12,12,12,12,12,12,12,11,12,13,11,12,12,12,11,13,11,12,12,12,12,12,12,12,12,12,12,12,12,12,12,12,12,12,12,12,11,12,12,12,12,12,12,12,12,12,12,12,12,11,12,12,12,12,12,12,12,12,12,12,12,12,12,12,12,12,12,12,12,12,12,12,12,12,12,12,12,12,12,12,12,11,12,12,12,12,12,12,12,12,12,12,12,12,12,12,12,12,12,12,12,12,12,12,12,12,12,12,12,12,12,12,12,12,11,12,12,12,12,12,12,12,12,12,12,12,12,12,12,12,12,12,12,12,12,12,12,12,12,12,11,12,12,12,12,12,12,12,12,12,12,12,12,12,12,12,12,12,11,12,12,12,12,12,12,12,12,12,12,12,12,11,12]",
        "number_of_frames": 670,
        "canvas_width": 2560,
        "canvas_height": 1440,
        "blanking": false,
        "staircase": false,
        "trial_type": "disks",
        "trial_index": 9,
        "time_elapsed": 55329,
        "internal_node_id": "0.0-9.0-0.0"
    },
    {
        "animation_sequence": "[{\"stimulus\":{\"id\":\"red-dot\",\"x\":424,\"y\":424,\"width\":112,\"height\":112},\"time\":1001},{\"stimulus\":{\"id\":\"green-dot\",\"x\":424,\"y\":424,\"width\":112,\"height\":112},\"time\":2001}]",
        "responses": "[]",
        "trial_type": "animation",
        "trial_index": 10,
        "time_elapsed": 58332,
        "internal_node_id": "0.0-10.0"
    },
    {
        "rt": -1,
        "key_press": -1,
        "correct": false,
        "id": "disk-condition-1-1",
        "choices": [],
        "correct_choice": [
            "R"
        ],
        "trial_duration": 8000,
        "response_ends_trial": true,
        "central_intensity": 0.9,
        "surround_intensity": 0.45,
        "central_radius": 18.5,
        "surround_radius": 37,
        "ratio": 2,
        "speed": 1124,
        "direction": 1,
        "field_spacing": 236,
        "background_color": "gray",
        "frame_rate": 11.93134328358209,
        "frame_rate_array": "[1,12,19,1,7,12,12,12,12,12,12,12,12,12,12,12,12,12,12,12,12,12,12,12,11,12,12,12,12,12,12,13,11,12,12,12,12,12,12,12,12,12,12,12,12,12,12,12,12,12,12,12,12,12,12,11,12,12,12,12,12,12,12,12,12,12,12,12,12,12,12,12,12,12,12,12,12,12,12,12,12,12,12,12,12,12,11,13,11,12,12,12,12,12,12,12,12,12,12,12,12,12,12,12,12,12,12,12,12,13,11,12,12,12,12,12,12,11,12,13,11,12,12,12,12,12,12,12,12,12,12,12,12,12,12,12,12,12,12,12,12,12,12,12,12,12,12,12,12,12,11,12,12,12,12,12,12,12,12,12,12,12,12,12,12,12,12,12,12,12,12,12,12,12,12,12,12,12,12,11,12,12,12,12,12,12,12,12,12,12,12,12,12,12,12,11,13,12,11,12,12,12,12,12,12,12,12,12,12,12,12,12,12,12,12,12,12,12,12,12,12,12,12,12,12,12,12,11,13,12,11,12,12,12,12,12,12,12,12,12,12,12,12,12,12,12,12,12,12,12,12,12,12,12,12,12,12,12,12,11,12,12,12,12,12,12,12,12,12,12,12,12,12,12,12,12,12,12,12,12,12,12,12,12,12,12,12,12,12,12,12,11,12,12,12,12,12,12,12,12,12,12,12,12,12,12,12,12,11,12,12,12,12,12,12,12,12,12,12,12,12,12,11,12,12,12,12,12,12,12,12,12,12,12,12,12,12,12,12,12,12,12,12,12,12,12,12,12,12,12,12,12,12,12,12,11,12,12,12,12,12,12,12,12,12,12,12,12,12,12,12,12,12,12,12,12,12,12,12,12,12,12,12,12,12,12,11,12,12,12,12,12,12,12,12,12,12,12,12,12,12,12,12,12,12,12,12,12,12,12,12,12,12,12,12,12,12,11,12,12,12,12,12,12,12,12,11,12,12,12,12,12,12,12,11,12,12,12,12,12,12,12,12,12,12,12,12,12,12,12,12,12,12,12,11,12,12,12,12,12,12,12,12,12,12,12,12,12,12,12,12,12,12,12,12,12,12,12,12,12,12,12,12,12,12,12,11,12,12,12,12,12,12,13,11,12,12,12,12,12,12,12,12,12,12,12,12,12,12,12,12,12,12,12,12,12,12,11,12,12,12,12,12,12,12,12,12,12,12,12,12,12,12,12,12,12,12,12,12,12,12,12,12,12,11,12,12,12,12,12,12,12,12,12,12,12,12,12,12,12,11,12,12,12,12,12,12,12,12,12,12,12,12,12,12,11,13,11,12,12,12,12,12,12,12,12,12,12,12,12,12,12,12,12,12,12,12,12,12,12,12,12,12,12,12,12,12,12,11,12,12,12,12,12,12,12,12,12,12,12,12,12,12,12,12,12,12,12,12,12,12,12,12,12,12,12,12,12,11,12,12,12,12,12,12,12,12,12,12,12,12,12,12,12,12,12,11,12,12,12,12,12,12,12,12,12,12,12,12,12]",
        "number_of_frames": 670,
        "canvas_width": 2560,
        "canvas_height": 1440,
        "blanking": false,
        "staircase": false,
        "trial_type": "disks",
        "trial_index": 11,
        "time_elapsed": 66380,
        "internal_node_id": "0.0-11.0-0.0"
    },
    {
        "animation_sequence": "[{\"stimulus\":{\"id\":\"red-dot\",\"x\":424,\"y\":424,\"width\":112,\"height\":112},\"time\":1001},{\"stimulus\":{\"id\":\"green-dot\",\"x\":424,\"y\":424,\"width\":112,\"height\":112},\"time\":2001}]",
        "responses": "[]",
        "trial_type": "animation",
        "trial_index": 12,
        "time_elapsed": 69383,
        "internal_node_id": "0.0-12.0"
    },
    {
        "rt": -1,
        "key_press": -1,
        "correct": false,
        "id": "disk-condition-1-1",
        "choices": [],
        "correct_choice": [
            "R"
        ],
        "trial_duration": 8000,
        "response_ends_trial": true,
        "central_intensity": 0.9,
        "surround_intensity": 0.45,
        "central_radius": 18.5,
        "surround_radius": 37,
        "ratio": 2,
        "speed": 1124,
        "direction": 1,
        "field_spacing": 236,
        "background_color": "gray",
        "frame_rate": 11.916542473919524,
        "frame_rate_array": "[1,8,2,25,1,8,12,19,12,9,9,11,12,12,12,12,12,12,12,12,12,12,12,12,12,12,12,12,11,12,12,12,12,12,12,12,12,12,12,12,12,12,12,12,12,12,12,12,12,12,13,11,12,12,12,12,12,12,12,11,13,11,12,12,12,12,12,12,12,12,12,12,12,12,12,12,12,12,12,12,12,12,12,12,12,12,12,12,12,12,11,12,12,12,12,12,12,12,12,12,12,12,12,12,12,12,12,12,11,12,12,12,12,12,12,12,12,12,12,12,12,12,12,11,12,12,12,12,12,12,12,12,12,12,12,12,12,12,12,12,12,12,12,12,12,12,12,12,12,12,12,12,12,12,12,11,12,12,12,12,12,12,12,12,12,12,12,12,12,12,12,12,12,12,12,12,12,12,12,12,12,12,12,12,11,12,12,12,12,12,12,12,12,12,12,12,12,12,12,12,12,12,12,12,12,12,12,12,12,12,12,12,12,12,12,12,12,12,11,12,12,12,12,12,12,12,12,12,11,13,11,12,12,12,12,12,12,12,12,12,12,12,12,11,12,12,12,12,12,12,12,12,12,12,12,12,12,12,12,12,11,13,11,12,12,12,12,12,12,12,12,12,12,12,12,12,12,12,12,12,12,12,12,12,12,12,12,12,12,12,12,11,12,12,12,12,12,12,12,12,13,11,12,12,12,12,12,12,12,12,11,12,12,12,12,12,12,12,12,12,12,12,12,12,12,12,12,12,12,12,12,12,11,12,12,12,12,12,12,12,12,12,12,12,12,12,12,12,11,12,12,12,12,12,12,12,12,12,12,12,12,12,12,12,11,12,13,11,12,12,12,12,12,12,12,12,12,12,12,12,12,12,12,12,12,12,12,12,12,12,12,12,12,12,12,12,12,12,11,12,12,12,12,12,12,12,12,12,12,12,12,12,12,12,12,12,12,12,12,12,12,12,12,12,12,12,11,12,12,12,12,12,12,13,11,12,12,12,12,12,12,12,12,11,13,12,11,13,11,12,12,12,13,11,12,12,12,12,12,12,12,12,11,12,12,12,12,13,11,12,12,12,12,12,12,12,12,12,12,11,12,12,12,12,13,11,12,12,12,12,12,12,12,12,11,13,11,12,12,12,12,12,12,12,12,12,12,12,12,12,12,12,12,12,12,12,12,12,12,12,12,12,12,12,12,12,11,12,12,12,12,13,11,12,12,12,12,12,12,12,12,12,12,12,12,12,12,12,12,12,12,12,12,12,12,12,12,11,12,12,12,12,12,12,12,12,12,12,12,12,12,12,12,12,12,12,12,12,12,12,12,12,12,12,12,12,12,12,11,12,12,12,12,12,12,12,12,11,12,12,12,12,12,12,12,12,12,12,12,11,12,13,11,13,11,12,12,12,12,12,12,12,12,12,12,12,12,12,12,12,12,12,12,12,12,12,12,12,12,12,12,11,12,12,13,11,12,12,12,12,12,12,12,12,12,12,12,12,12,12,12,12,12,12,12,12,12,12,12,11,12]",
        "number_of_frames": 671,
        "canvas_width": 2560,
        "canvas_height": 1440,
        "blanking": false,
        "staircase": false,
        "trial_type": "disks",
        "trial_index": 13,
        "time_elapsed": 77436,
        "internal_node_id": "0.0-13.0-0.0"
    }
]