[
    {
        "animation_sequence": "[{\"stimulus\":{\"id\":\"red-dot\",\"x\":424,\"y\":424,\"width\":112,\"height\":112},\"time\":1001},{\"stimulus\":{\"id\":\"green-dot\",\"x\":424,\"y\":424,\"width\":112,\"height\":112},\"time\":2001}]",
        "responses": "[]",
        "trial_type": "animation",
        "trial_index": 0,
        "time_elapsed": 3004,
        "internal_node_id": "0.0-0.0"
    },
    {
        "rt": -1,
        "key_press": -1,
        "correct": false,
        "id": "disk-condition-11-1",
        "choices": [],
        "correct_choice": [
            "R"
        ],
        "trial_duration": 8000,
        "response_ends_trial": true,
        "central_intensity": 0.9,
        "surround_intensity": 0.45,
        "central_radius": 2,
        "surround_radius": 4,
        "ratio": 2,
        "speed": 1124,
        "direction": 1,
        "field_spacing": 96,
        "background_color": "gray",
        "frame_rate": 16.56728778467909,
        "frame_rate_array": "[0,8,7,12,13,10,19,18,16,15,17,16,17,17,17,16,17,17,16,16,18,16,17,17,17,17,15,17,16,17,19,15,16,17,17,16,17,17,17,16,17,16,17,17,16,17,16,17,18,15,17,17,17,18,15,17,16,17,18,15,17,17,17,16,18,15,17,16,17,17,16,18,16,16,17,17,18,15,18,16,16,18,16,17,16,16,19,15,17,16,17,19,14,17,17,16,17,16,17,17,17,16,17,17,17,16,17,17,16,18,15,16,17,17,20,13,17,17,16,17,17,16,18,16,16,17,18,17,17,15,16,17,18,17,16,16,16,19,15,16,17,17,19,14,17,17,16,17,17,16,17,17,17,16,16,18,16,16,17,17,20,13,17,16,17,19,15,16,17,17,16,17,17,17,16,17,17,15,18,16,18,16,16,18,17,15,17,16,19,15,17,16,17,18,15,17,17,17,16,17,17,16,16,17,18,15,18,16,16,17,17,18,15,17,17,16,18,32,1,16,17,18,15,16,17,16,19,15,17,17,16,19,14,17,17,16,17,17,16,17,17,17,16,17,17,15,18,16,17,18,15,17,16,17,19,15,16,17,17,16,17,17,17,16,17,17,16,17,17,15,17,17,18,15,17,17,18,17,15,17,16,17,18,16,17,16,17,16,17,17,16,16,18,17,15,18,17,15,17,17,18,15,17,17,16,18,16,17,16,17,18,14,18,16,17,16,17,18,16,16,17,17,18,16,17,15,18,16,18,15,17,17,16,18,16,15,18,16,19,14,18,16,16,17,17,17,16,17,17,16,17,17,17,16,17,17,17,15,19,15,16,19,15,16,18,17,18,14,17,17,17,16,17,17,16,17,17,17,16,17,18,15,17,16,18,15,17,17,17,18,15,17,16,17,18,15,17,17,16,18,16,16,17,17,16,17,17,17,16,17,16,17,18,15,17,17,17,17,16,17,16,16,19,14,17,17,18,15,17,17,16,17,19,14,17,17,16,17,17,17,17,16,19,14,17,17,16,17,16,17,18,16,16,17,17,17,16,17,17,16,18,16,16,17,18,17,14,17,17,16,17,17,17,16,17,17,16,17,17,16,19,15,17]",
        "number_of_frames": 483,
        "canvas_width": 2560,
        "canvas_height": 1440,
        "blanking": false,
        "staircase": false,
        "trial_type": "disks",
        "trial_index": 1,
        "time_elapsed": 11108,
        "internal_node_id": "0.0-1.0-0.0"
    },
    {
        "animation_sequence": "[{\"stimulus\":{\"id\":\"red-dot\",\"x\":424,\"y\":424,\"width\":112,\"height\":112},\"time\":1002},{\"stimulus\":{\"id\":\"green-dot\",\"x\":424,\"y\":424,\"width\":112,\"height\":112},\"time\":2002}]",
        "responses": "[]",
        "trial_type": "animation",
        "trial_index": 2,
        "time_elapsed": 14111,
        "internal_node_id": "0.0-2.0"
    },
    {
        "rt": -1,
        "key_press": -1,
        "correct": false,
        "id": "disk-condition-11-1",
        "choices": [],
        "correct_choice": [
            "R"
        ],
        "trial_duration": 8000,
        "response_ends_trial": true,
        "central_intensity": 0.9,
        "surround_intensity": 0.45,
        "central_radius": 2,
        "surround_radius": 4,
        "ratio": 2,
        "speed": 1124,
        "direction": 1,
        "field_spacing": 96,
        "background_color": "gray",
        "frame_rate": 16.56935817805383,
        "frame_rate_array": "[1,32,2,10,12,12,12,12,12,12,12,16,16,16,17,19,15,16,17,17,16,17,17,17,16,17,17,16,17,17,17,16,17,17,15,17,17,16,19,15,17,16,17,18,15,17,17,17,16,17,17,16,17,16,17,16,18,17,17,15,17,18,15,17,17,16,18,15,17,17,16,19,15,17,16,17,18,15,17,17,16,17,17,17,16,17,16,17,17,17,16,17,17,16,18,15,17,17,17,16,17,17,16,17,17,17,15,18,16,16,17,17,18,15,17,17,16,19,15,17,16,17,18,15,17,17,15,18,17,17,16,16,17,16,17,18,16,16,17,17,17,16,17,17,16,18,16,16,17,16,19,14,17,18,15,17,18,16,17,16,17,18,15,18,16,16,17,17,18,15,17,16,16,19,15,16,18,16,16,17,17,17,16,17,17,16,18,16,17,16,17,17,16,16,18,17,17,15,17,17,16,19,14,18,17,16,16,17,17,17,16,17,16,17,18,16,16,17,16,18,15,17,17,16,19,17,14,17,17,19,14,17,18,15,17,17,17,16,16,18,16,17,17,17,15,17,17,18,15,17,17,17,17,16,16,17,17,16,17,17,16,16,17,17,16,18,16,17,16,17,18,15,17,17,17,18,15,17,16,17,18,16,16,17,17,15,17,18,16,17,16,18,15,18,16,17,16,17,17,16,17,17,16,18,16,17,16,17,18,14,17,17,17,16,17,17,17,17,16,16,18,17,16,17,16,17,18,15,16,17,17,17,16,17,17,16,17,16,18,17,15,17,17,16,18,16,16,17,17,23,15,17,17,19,16,15,17,16,17,16,17,17,17,16,17,17,16,18,16,16,17,17,16,17,16,18,16,17,17,16,17,16,17,17,17,17,16,17,16,16,19,14,17,17,16,20,14,16,19,15,16,17,17,18,15,17,17,17,17,16,17,16,17,18,16,15,17,17,17,16,17,17,16,17,17,16,18,16,16,17,17,17,16,17,17,16,18,15,17,16,17,19,14,17,17,17,16,17,17,16,17,17,16,17,17,17,16,17,17,17,15,18,17,16,18,15,16,18,16,19,14,17,17,16,17,17,16,17,17,19,14,17,20]",
        "number_of_frames": 483,
        "canvas_width": 2560,
        "canvas_height": 1440,
        "blanking": false,
        "staircase": false,
        "trial_type": "disks",
        "trial_index": 3,
        "time_elapsed": 22195,
        "internal_node_id": "0.0-3.0-0.0"
    },
    {
        "animation_sequence": "[{\"stimulus\":{\"id\":\"red-dot\",\"x\":424,\"y\":424,\"width\":112,\"height\":112},\"time\":1001},{\"stimulus\":{\"id\":\"green-dot\",\"x\":424,\"y\":424,\"width\":112,\"height\":112},\"time\":2002}]",
        "responses": "[]",
        "trial_type": "animation",
        "trial_index": 4,
        "time_elapsed": 25199,
        "internal_node_id": "0.0-4.0"
    },
    {
        "rt": -1,
        "key_press": -1,
        "correct": false,
        "id": "disk-condition-11-1",
        "choices": [],
        "correct_choice": [
            "R"
        ],
        "trial_duration": 8000,
        "response_ends_trial": true,
        "central_intensity": 0.9,
        "surround_intensity": 0.45,
        "central_radius": 2,
        "surround_radius": 4,
        "ratio": 2,
        "speed": 1124,
        "direction": 1,
        "field_spacing": 96,
        "background_color": "gray",
        "frame_rate": 16.561076604554867,
        "frame_rate_array": "[1,11,1,32,1,3,17,17,16,17,17,16,16,16,17,19,15,16,17,17,16,17,17,17,16,17,17,16,17,16,18,16,16,18,16,16,17,17,18,15,17,16,17,18,16,16,17,17,18,15,16,17,17,16,17,17,17,16,17,17,16,17,16,18,16,16,18,15,17,18,15,19,15,17,17,16,18,15,17,17,17,16,17,17,16,16,18,17,16,17,16,16,17,17,18,15,17,17,16,18,16,17,17,16,18,15,17,17,16,16,17,17,17,16,17,16,17,17,17,16,17,17,17,16,17,17,16,18,16,16,17,16,18,15,18,17,16,18,16,15,29,12,12,14,18,16,16,17,17,16,18,16,16,17,17,18,15,17,16,17,18,16,16,17,17,15,18,16,18,15,19,16,16,17,16,19,15,16,19,14,17,16,17,18,16,16,18,16,18,15,17,17,16,18,16,16,17,16,17,17,17,17,15,17,17,16,18,16,17,16,17,17,16,18,16,17,17,16,17,15,17,19,14,17,17,17,16,17,17,16,17,19,15,16,18,17,15,17,17,16,17,17,17,16,17,16,16,17,17,18,15,17,17,16,18,16,16,17,18,16,16,17,17,17,17,15,17,17,17,16,17,16,18,17,16,16,17,17,16,17,17,16,18,16,17,16,16,19,14,17,17,16,17,17,17,17,16,17,16,17,17,17,16,17,17,17,16,17,17,16,18,15,16,17,17,19,14,17,17,16,17,17,17,16,17,17,16,17,17,17,17,17,15,18,15,17,17,16,19,15,16,17,17,16,17,17,17,16,17,17,16,17,17,17,16,17,17,16,17,17,16,17,16,17,17,16,17,17,17,16,17,17,16,17,17,17,17,15,18,16,16,19,15,16,17,17,16,17,17,17,16,17,17,16,17,17,16,17,17,17,15,17,17,16,19,15,17,16,17,19,14,17,17,17,16,17,17,16,17,17,16,17,17,16,16,17,17,18,15,17,17,16,19,15,16,17,17,18,15,17,17,16,17,17,17,16,16,17,16,17,18,16,16,17,17,17,16,17,17,16,18,16,16,17,17,18,15,17,16,16,17,17,16,18,16,17,16,17,17,16,17,17,17]",
        "number_of_frames": 483,
        "canvas_width": 2560,
        "canvas_height": 1440,
        "blanking": false,
        "staircase": false,
        "trial_type": "disks",
        "trial_index": 5,
        "time_elapsed": 33262,
        "internal_node_id": "0.0-5.0-0.0"
    },
    {
        "animation_sequence": "[{\"stimulus\":{\"id\":\"red-dot\",\"x\":424,\"y\":424,\"width\":112,\"height\":112},\"time\":1001},{\"stimulus\":{\"id\":\"green-dot\",\"x\":424,\"y\":424,\"width\":112,\"height\":112},\"time\":2001}]",
        "responses": "[]",
        "trial_type": "animation",
        "trial_index": 6,
        "time_elapsed": 36266,
        "internal_node_id": "0.0-6.0"
    },
    {
        "rt": -1,
        "key_press": -1,
        "correct": false,
        "id": "disk-condition-11-1",
        "choices": [],
        "correct_choice": [
            "R"
        ],
        "trial_duration": 8000,
        "response_ends_trial": true,
        "central_intensity": 0.9,
        "surround_intensity": 0.45,
        "central_radius": 2,
        "surround_radius": 4,
        "ratio": 2,
        "speed": 1124,
        "direction": 1,
        "field_spacing": 96,
        "background_color": "gray",
        "frame_rate": 16.560416666666665,
        "frame_rate_array": "[1,11,2,26,1,9,12,24,13,16,19,15,18,15,17,18,15,17,17,17,16,17,17,16,17,17,16,16,18,16,16,17,17,17,16,17,17,16,18,16,16,17,17,18,14,17,17,16,18,16,18,16,16,17,16,17,18,16,16,17,17,17,16,17,17,16,18,16,15,17,18,17,16,16,17,17,18,14,17,18,16,16,17,17,17,16,17,16,17,18,16,16,17,17,18,15,17,16,17,18,16,15,18,16,17,16,17,17,16,17,17,16,18,16,17,16,17,17,16,17,17,16,18,15,18,15,18,18,16,15,17,17,16,17,17,17,16,17,17,16,17,17,16,17,17,17,17,16,17,15,19,15,17,17,16,19,14,17,17,17,16,17,17,17,16,17,17,16,17,16,17,17,16,18,15,17,18,15,19,15,17,43,9,12,12,12,12,16,17,17,17,16,16,18,16,17,17,15,17,17,17,18,15,17,16,17,19,15,16,17,17,16,16,18,16,16,18,16,16,18,16,17,16,17,18,15,17,17,16,18,16,17,16,17,18,15,16,17,17,19,14,17,17,16,17,17,16,18,15,18,16,16,19,15,16,17,18,17,15,17,17,16,19,14,17,17,16,17,17,17,17,16,17,16,17,17,17,16,17,17,16,17,17,16,17,17,16,17,17,15,19,15,17,17,17,18,15,17,17,16,17,16,17,17,17,15,18,16,18,15,17,18,15,18,16,16,17,17,18,15,17,17,16,17,17,16,17,16,17,16,17,18,16,16,17,17,18,15,17,16,17,18,16,16,17,16,17,16,18,16,16,17,18,15,18,16,17,17,16,17,17,16,17,17,17,16,17,17,16,17,17,16,17,16,18,16,17,16,17,18,15,16,18,16,17,16,17,17,17,16,17,16,17,17,17,16,17,17,16,17,17,16,17,17,16,17,17,17,16,17,18,15,18,15,17,16,18,16,17,16,17,16,17,16,17,17,17,16,17,17,17,16,17,17,16,18,16,16,16,18,18,14,17,17,16,17,17,17,17,16,17,16,17,17,17,16,17,17,17,16,16,16,17,19,15,16,17,17,16,17,17,17,16,17,17,16,17,17,17,16]",
        "number_of_frames": 480,
        "canvas_width": 2560,
        "canvas_height": 1440,
        "blanking": false,
        "staircase": false,
        "trial_type": "disks",
        "trial_index": 7,
        "time_elapsed": 44473,
        "internal_node_id": "0.0-7.0-0.0"
    },
    {
        "animation_sequence": "[{\"stimulus\":{\"id\":\"red-dot\",\"x\":424,\"y\":424,\"width\":112,\"height\":112},\"time\":1001},{\"stimulus\":{\"id\":\"green-dot\",\"x\":424,\"y\":424,\"width\":112,\"height\":112},\"time\":2000}]",
        "responses": "[]",
        "trial_type": "animation",
        "trial_index": 8,
        "time_elapsed": 47477,
        "internal_node_id": "0.0-8.0"
    },
    {
        "rt": -1,
        "key_press": -1,
        "correct": false,
        "id": "disk-condition-11-1",
        "choices": [],
        "correct_choice": [
            "R"
        ],
        "trial_duration": 8000,
        "response_ends_trial": true,
        "central_intensity": 0.9,
        "surround_intensity": 0.45,
        "central_radius": 2,
        "surround_radius": 4,
        "ratio": 2,
        "speed": 1124,
        "direction": 1,
        "field_spacing": 96,
        "background_color": "gray",
        "frame_rate": 16.87552742616034,
        "frame_rate_array": "[1,10,23,1,8,12,12,15,17,18,15,17,17,16,17,17,16,17,16,18,15,17,17,16,18,16,17,16,17,18,15,17,17,17,16,17,17,15,17,19,14,17,17,17,16,17,17,16,17,17,17,16,17,17,16,17,17,17,15,17,17,16,19,15,17,16,17,19,14,17,17,16,17,17,16,17,17,17,16,17,17,16,17,17,16,18,16,16,17,17,18,15,17,172,12,12,12,12,12,12,12,12,15,17,16,17,17,16,17,17,16,17,17,16,18,16,16,17,17,16,17,16,17,17,17,16,16,18,16,17,17,16,17,16,17,17,17,17,16,17,16,17,18,15,16,18,17,15,18,16,17,16,17,18,15,18,16,16,20,14,18,15,17,17,15,19,16,17,16,16,19,14,17,18,16,16,17,17,17,16,17,17,16,17,17,15,18,17,17,16,16,18,15,19,15,16,18,16,19,14,17,17,16,17,17,17,16,17,17,16,17,17,16,17,16,17,18,15,17,17,16,18,16,16,17,17,18,15,17,17,16,17,17,16,17,16,17,16,17,18,15,17,17,16,18,16,17,16,17,18,15,17,17,17,16,17,18,15,17,17,16,16,18,16,16,17,17,18,15,17,17,16,18,16,17,16,17,18,14,17,18,16,16,17,18,16,16,17,17,16,17,17,16,17,17,17,16,17,17,16,18,15,17,16,18,18,14,17,17,16,19,91,5,12,12,12,12,11,13,14,16,17,17,16,17,17,17,16,16,17,17,17,16,19,15,16,20,14,16,17,17,17,16,17,17,16,18,16,16,17,16,18,16,16,17,17,18,15,17,17,16,16,17,17,17,16,17,16,17,18,15,17,17,17,17,16,17,16,18,17,16,15,18,17,18,14,17,17,17,17,16,17,17,16,17,17,16,17,17,16,17,17,17,15,18,16,17,18,15,16,18,16,19,14,17,17,16,17,17,17,16,17,17,16,17,17,17,16,16,18,17,15,17,17,16,19,15,16,17,17,18,15,17,17,16,17,17,16,17,17,16,17,16,18,15,17,17,17,18,15,17,16,17,18,16,16,17,17,16,17,17,16,17,17]",
        "number_of_frames": 474,
        "canvas_width": 2560,
        "canvas_height": 1440,
        "blanking": false,
        "staircase": false,
        "trial_type": "disks",
        "trial_index": 9,
        "time_elapsed": 55561,
        "internal_node_id": "0.0-9.0-0.0"
    },
    {
        "animation_sequence": "[{\"stimulus\":{\"id\":\"red-dot\",\"x\":424,\"y\":424,\"width\":112,\"height\":112},\"time\":1002},{\"stimulus\":{\"id\":\"green-dot\",\"x\":424,\"y\":424,\"width\":112,\"height\":112},\"time\":2002}]",
        "responses": "[]",
        "trial_type": "animation",
        "trial_index": 10,
        "time_elapsed": 58564,
        "internal_node_id": "0.0-10.0"
    },
    {
        "rt": -1,
        "key_press": -1,
        "correct": false,
        "id": "disk-condition-11-1",
        "choices": [],
        "correct_choice": [
            "R"
        ],
        "trial_duration": 8000,
        "response_ends_trial": true,
        "central_intensity": 0.9,
        "surround_intensity": 0.45,
        "central_radius": 2,
        "surround_radius": 4,
        "ratio": 2,
        "speed": 1124,
        "direction": 1,
        "field_spacing": 96,
        "background_color": "gray",
        "frame_rate": 16.639583333333334,
        "frame_rate_array": "[0,10,4,22,0,11,12,29,16,16,17,18,15,17,17,16,17,17,16,17,16,17,16,17,18,16,16,17,17,17,16,17,16,17,18,16,16,16,17,19,14,17,17,16,17,17,16,18,16,17,16,17,18,15,17,17,16,18,16,17,16,17,18,15,16,17,17,16,17,17,16,17,17,17,16,17,17,17,16,17,17,16,17,17,15,19,15,18,16,16,19,14,17,17,17,16,17,17,16,17,17,17,16,17,16,17,16,17,18,15,17,17,16,19,15,17,16,17,18,15,17,17,17,16,17,17,16,17,17,15,17,18,16,16,17,17,17,16,17,17,16,19,15,16,17,17,18,15,16,18,15,17,18,16,17,16,17,17,16,18,16,19,14,17,18,15,17,16,17,19,15,16,16,17,19,14,17,17,17,16,17,17,17,16,17,17,16,18,15,16,18,16,18,15,17,18,15,19,15,17,16,17,19,14,17,17,16,17,17,17,16,17,16,17,16,18,16,16,17,17,18,15,17,17,16,18,16,16,17,17,18,15,16,17,16,17,17,16,18,16,17,16,17,18,15,17,17,17,17,16,18,15,17,18,15,17,16,18,15,17,17,17,16,17,17,16,17,17,17,16,17,17,16,18,16,16,18,15,17,17,16,18,16,17,16,17,18,15,17,17,16,16,17,17,17,16,17,17,16,17,17,16,17,17,17,16,17,17,16,18,16,16,17,17,18,14,17,17,16,17,17,18,15,17,17,16,17,17,17,16,17,17,17,16,16,18,15,19,15,16,17,17,19,14,17,17,16,17,17,17,16,18,16,17,16,17,16,16,17,17,18,15,17,16,17,19,15,16,17,17,16,17,17,17,16,17,17,16,17,16,18,15,17,18,15,17,17,17,18,15,17,17,16,19,15,17,16,17,18,15,17,17,16,16,17,17,17,16,17,16,17,18,16,81,10,12,12,12,12,12,16,16,17,17,16,17,17,16,17,19,14,17,20,13,17,17,16,18,16,17,16,16,18,15,17,17,16,17,17,17,16,17,17,17,16,17,17,16,17,19,14,17,17,16,17,17,17,17,15,17,16,17,19,14,17,17,17,16,17,17]",
        "number_of_frames": 480,
        "canvas_width": 2560,
        "canvas_height": 1440,
        "blanking": false,
        "staircase": false,
        "trial_type": "disks",
        "trial_index": 11,
        "time_elapsed": 66644,
        "internal_node_id": "0.0-11.0-0.0"
    },
    {
        "animation_sequence": "[{\"stimulus\":{\"id\":\"red-dot\",\"x\":424,\"y\":424,\"width\":112,\"height\":112},\"time\":1001},{\"stimulus\":{\"id\":\"green-dot\",\"x\":424,\"y\":424,\"width\":112,\"height\":112},\"time\":2001}]",
        "responses": "[]",
        "trial_type": "animation",
        "trial_index": 12,
        "time_elapsed": 69648,
        "internal_node_id": "0.0-12.0"
    },
    {
        "rt": -1,
        "key_press": -1,
        "correct": false,
        "id": "disk-condition-11-1",
        "choices": [],
        "correct_choice": [
            "R"
        ],
        "trial_duration": 8000,
        "response_ends_trial": true,
        "central_intensity": 0.9,
        "surround_intensity": 0.45,
        "central_radius": 2,
        "surround_radius": 4,
        "ratio": 2,
        "speed": 1124,
        "direction": 1,
        "field_spacing": 96,
        "background_color": "gray",
        "frame_rate": 16.542443064182194,
        "frame_rate_array": "[1,11,4,21,3,12,12,12,15,16,17,15,17,17,17,18,15,17,16,17,19,15,16,17,17,18,16,15,18,16,16,17,17,17,16,17,17,16,17,17,17,16,17,17,15,17,17,17,18,15,17,16,17,19,15,16,17,17,16,17,17,16,16,17,18,15,18,16,16,17,17,18,15,17,17,16,19,15,17,16,17,18,15,17,17,16,16,17,17,17,16,17,17,16,18,16,16,17,17,17,16,17,17,16,18,16,15,18,16,19,14,17,17,16,17,17,17,17,16,17,16,17,17,17,16,17,17,18,14,18,16,16,19,15,16,17,17,19,14,17,17,16,17,17,16,17,17,17,16,17,18,15,16,18,16,18,15,17,16,17,19,15,16,17,17,16,17,17,17,16,17,17,16,18,16,16,17,17,17,16,16,18,15,19,15,17,17,16,17,17,17,16,17,17,15,17,18,16,18,15,17,16,17,18,16,16,17,16,18,16,16,17,17,18,15,17,16,17,18,15,17,17,16,18,16,16,21,13,16,17,17,16,17,17,16,17,17,16,17,17,16,18,16,17,16,17,18,15,17,17,16,16,17,17,17,16,17,16,17,17,17,17,16,17,17,16,17,17,16,18,16,15,17,17,19,14,17,17,16,17,17,17,16,17,17,16,17,17,17,16,17,17,17,16,16,16,17,19,15,16,17,17,16,17,17,17,16,19,15,16,17,17,16,17,17,16,17,17,16,17,17,16,17,17,16,18,16,16,17,17,16,17,17,16,17,19,14,17,17,17,16,18,16,17,16,16,17,16,19,15,16,17,17,16,17,17,17,16,17,17,16,17,17,16,17,17,16,17,17,17,16,17,17,16,17,17,17,16,17,16,17,18,15,16,17,17,16,17,17,17,16,17,17,17,16,17,17,16,17,17,16,17,17,17,17,16,16,16,17,19,15,16,17,17,16,17,17,17,16,17,17,16,17,17,16,17,41,5,12,12,13,17,18,16,16,17,17,16,17,17,16,17,17,15,17,18,16,17,17,16,18,15,17,17,16,18,16,16,17,17,17,16,17,16,18,17,15,17,17,16,19,15,16,17,17,16,17,17,17,16,17,16,17]",
        "number_of_frames": 483,
        "canvas_width": 2560,
        "canvas_height": 1440,
        "blanking": false,
        "staircase": false,
        "trial_type": "disks",
        "trial_index": 13,
        "time_elapsed": 77712,
        "internal_node_id": "0.0-13.0-0.0"
    }
]